SWV ITM Data Console - ITM Port: 0
C device is ready.
MPU6050 is ready!
Calibration Complete!
Accel Offsets: X = -4145, Y = -917, Z = 14036
Gyro Offsets: X = -466, Y = 163, Z = -193
ax, ay, az, gx, gy, gz
-0.0070, -0.0019, 0.0054, -0.1908, -1.5038, 0.7176
-0.0038, 0.0003, -0.0081, -0.9084, -2.4046, 2.4580
-0.0019, -0.0007, -0.0024, -0.4275, -2.9466, 1.0382
-0.0078, -0.0053, -0.0015, -0.6794, -1.5191, 2.2443
0.0005, -0.0002, -0.0029, -0.6718, -0.9160, 1.8015
-0.0046, 0.0003, 0.0039, -0.4122, 0.8321, 1.1069
0.0023, 0.0015, 0.0010, 0.3359, 1.3053, -1.0229
-0.0012, 0.0074, 0.0078, 0.2901, 1.6183, -0.5725
-0.0097, 0.0228, -0.0020, 0.2824, 1.1069, -1.0153
-0.0141, 0.0184, -0.0046, 0.8702, -0.5115, -3.2901
-0.0112, 0.0103, 0.0029, 0.0534, -0.2824, -0.7557
0.0025, 0.0059, 0.0049, 0.0305, 0.0840, -0.2595
-0.0073, 0.0027, 0.0046, 0.9389, -1.3511, -3.3588
0.0035, 0.0064, 0.0012, 0.6260, -0.1679, -2.4427
0.0013, 0.0047, -0.0061, 0.8779, -0.3588, -2.9618
-0.0043, -0.0019, 0.0088, 0.3588, -0.9466, -1.2901
0.0020, 0.0010, -0.0039, 0.3206, -2.1832, -1.0153
-0.0038, 0.0049, -0.0076, 0.1298, -1.8244, -0.1221
-0.0009, -0.0009, -0.0017, -0.1298, -1.7863, -0.0611
-0.0034, -0.0036, 0.0081, 0.0840, -0.7176, 0.1069
-0.0004, 0.0035, 0.0024, 0.2061, 0.0382, -1.1221
-0.0009, 0.0027, 0.0073, 0.7557, 0.0000, -2.2214
-0.0085, -0.0112, -0.0012, 0.4580, 1.2595, -1.4351
-0.0068, -0.0056, -0.0088, 0.1832, 1.4733, -0.0076
-0.0046, 0.0003, 0.0044, -0.0992, 1.0840, 0.1374
-0.0031, -0.0009, 0.0005, -0.1679, 0.4351, 0.2290
-0.0007, -0.0004, -0.0022, -0.0687, -1.0534, 0.2748
-0.0024, 0.0015, 0.0007, -0.1527, 0.2137, 0.1145
0.0027, 0.0003, -0.0059, -0.2748, -0.2443, 1.0305
-0.0070, 0.0086, -0.0010, -0.4504, -1.4885, 1.4122
-0.0019, -0.0024, 0.0054, -0.5191, -1.8931, 1.7634
-0.0075, 0.0010, 0.0037, 0.0000, -1.6107, 0.4580
0.0018, -0.0036, 0.0007, 0.0611, -0.8855, 0.2519
0.0008, 0.0015, 0.0017, -0.0611, 1.6336, 0.1756
-0.0019, 0.0018, 0.0002, -0.1145, 3.1374, 0.2443
-0.0053, -0.0031, -0.0027, -0.1450, 2.5496, 0.1069
0.0027, 0.0027, -0.0088, 0.0076, 1.4504, 0.0992
0.0152, 0.0198, -0.0017, 0.5725, 2.2366, -2.0000
-0.0068, -0.0012, -0.0100, 1.2443, -0.6336, -3.6870
0.0018, 0.0027, -0.0010, 2.7634, -3.2595, -8.2672
-0.0036, 0.0101, 0.0178, 2.1603, -3.2214, -6.9008
0.0069, -0.0029, 0.0203, 0.2977, 21.3740, -0.1756
0.0181, -0.2001, -0.0837, 6.6031, 24.9695, -18.8321
0.0333, -0.0217, -0.0161, 10.7557, 15.8626, -32.1985
-0.0622, 0.0342, -0.0208, 2.4198, 23.4733, -6.6031
-0.0212, -0.1328, -0.0115, 5.8397, 17.6794, -17.9618
-0.0353, -0.0007, -0.0420, -0.2672, 1.9084, 1.4656
-0.0392, -0.0109, -0.0139, -0.9389, -8.0153, 2.6260
-0.0266, -0.0016, 0.0015, -0.9084, -18.8092, 2.1756
-0.1303, 0.0682, -0.0422, 6.0916, -9.1298, -19.6412
0.0110, -0.0070, 0.0232, -0.0687, -4.6031, -0.5802
0.0057, -0.0148, 0.0410, -1.2061, 6.7939, 3.8855
-0.0031, -0.0185, 0.0078, -0.0687, 5.9008, 0.0992
-0.0263, 0.0032, 0.0015, 0.1374, 19.0916, 0.0382
-0.0266, -0.0007, -0.0024, -0.0763, 54.6641, 0.0763
-0.0488, -0.0026, -0.0239, 0.3740, 47.6412, -0.0534
-0.0798, 0.0225, -0.0754, 1.0916, 35.5191, -2.1527
-0.1049, 0.0381, 0.0676, 8.9695, 32.3435, -23.1832
-0.0058, -0.0085, 0.0093, 13.7557, 28.4580, -38.2137
0.0005, -0.0798, -0.0154, 20.4580, 49.3893, -51.1145
-0.3156, 0.0550, -0.1704, 2.1145, 27.7405, -4.4656
0.2913, 0.3006, -0.0215, -6.9237, -46.1603, 15.1298
-0.1479, -0.1579, 0.1191, 2.0458, -18.7328, -4.4733
-0.0256, -0.0339, -0.0134, -4.3969, 18.1603, 11.2519
-0.0510, 0.0003, 0.0269, 0.0687, 7.5802, 0.4275
-0.0822, -0.0038, -0.0330, -2.9389, 23.2672, 6.8779
-0.1276, 0.0372, -0.0889, -6.3206, 23.8015, 15.4580
-0.0849, 0.0137, -0.0237, -9.1527, 4.4962, -9.8855
-0.2097, -0.1264, -0.0410, 5.5115, -5.3511, -4.3969
-0.0632, 0.0164, -0.0435, 12.5802, -6.6947, 0.4427
-0.0754, -0.0002, -0.0349, 3.4122, -5.8168, -6.9466
-0.0881, 0.0023, -0.0281, 1.7863, 3.2977, -4.1374
-0.1799, -0.0021, -0.3450, 0.9313, -33.9924, 0.3359
-0.2043, 0.2564, -0.0024, 65.1374, -70.6031, -58.5878
-0.0051, 0.0648, -0.0017, 23.0763, 1.9466, 18.9389
-0.9745, 0.0438, -0.0850, 35.9695, 48.1450, 166.2748
-0.0324, -0.0275, 0.0361, 31.5114, -6.9466, -41.7328
-0.0143, 0.0728, -0.0146, 14.0611, 21.6412, 6.7252
-0.1122, 0.0552, -0.0103, 21.4504, -12.4580, 74.0076
0.0884, 0.3475, 0.0613, 10.9008, -3.0763, 143.7405
0.2215, 0.0589, 0.0464, -0.2748, -5.7557, 78.4962
-0.1464, 0.0833, -0.0400, -9.7099, 7.2901, 76.0916
0.1866, -0.3049, -0.0027, -20.7634, -19.3511, 138.4657
-0.2841, 0.0157, -0.0100, -42.2977, -15.1221, 158.8931
-0.4284, 0.5526, 0.1243, -70.8092, 9.7939, 232.7939
0.2086, -0.2907, -0.1338, -110.3664, -20.3664, -24.8931
-0.5427, 0.8345, 0.1091, -2.5573, -8.2595, -22.2519
-0.0087, 0.0794, -0.0127, -17.9237, -5.7557, -1.6336
-0.0705, 0.0196, -0.0200, -1.6947, -18.9389, -22.3053
-0.1674, -0.0573, -0.0139, -8.1679, 3.2672, 51.6947
-0.5510, 0.5450, -0.0583, 15.6412, 38.3664, 93.3817
-0.4011, 0.2061, -0.1006, 19.0763, 15.9008, 86.4427
-0.1103, 0.0186, 0.0083, -12.0611, 11.9924, 122.0840
-0.1948, 0.2698, -0.0869, 18.2901, 32.6260, 21.6718
0.3985, -0.1879, 0.0725, 6.3511, 30.4886, 30.5344
0.0760, 0.2381, -0.0432, 29.8779, 18.0229, -23.4275
-0.2983, 0.1446, -0.1387, 32.8550, 12.7939, -31.5038
-0.0685, 0.0142, -0.0405, 8.4580, -9.7176, -4.9160
0.3306, -0.1269, 0.1458, 30.0458, 9.6260, -10.0076
-0.9860, -0.2900, -0.1868, 19.6260, 118.4885, 155.6794
0.0172, 0.1317, 0.2070, 47.1756, 7.9771, -31.8244
-0.2370, -0.3544, 0.1921, -10.4427, 78.0382, -5.7557
0.1863, 0.1116, -0.1936, -54.6336, 52.4122, -42.3740
-0.1489, 0.0086, 0.1079, -32.2061, 24.5954, -118.5649
-0.0895, 0.0757, -0.0518, -34.0992, -1.1756, -139.9618
-0.1826, -0.0197, -0.0298, -47.0840, -14.7023, -117.6336
-0.1474, -0.0876, -0.0444, -35.7863, -11.8092, -94.2366
-0.1994, 0.5010, 0.1562, -2.7176, -33.8855, -73.1603
-0.1191, 0.0074, -0.0439, -0.4656, -5.5649, 0.6031
-0.1271, 0.0001, -0.0596, 0.0382, -18.1756, -0.0076
-0.1078, 0.0025, -0.0117, 0.2595, -13.5725, 0.5725
-0.0554, 0.0223, 0.0120, -18.4886, 14.7634, 54.1298
-0.1032, 0.0035, 0.0049, -0.2366, 11.7863, 0.3511
-0.1318, -0.0048, -0.0671, 0.6412, 9.2519, -1.2519
-0.1342, 0.0025, -0.0898, -0.0458, 2.1374, 0.1069
-0.1186, -0.0031, -0.0527, -0.0840, 5.3817, 0.2061
-0.1215, 0.0035, -0.0369, -0.2137, 18.2366, 0.0916
-0.1059, 0.0020, 0.0195, -0.5954, 24.4962, 0.7252
0.0877, 0.2232, -0.0583, -14.9695, -12.3664, 30.3817
-0.1755, 0.0543, -0.1023, -4.0992, -45.1679, 11.4580
-0.4033, 0.0145, -0.0525, -12.7481, 22.0076, 25.2290
-0.5478, 0.0569, 0.3857, 9.5267, -22.5114, -16.3893
-1.6984, 1.2339, -0.4231, -42.3740, -4.5954, 92.5802
-0.5029, 0.0587, -0.0024, -15.9847, -67.4122, 38.8168
-0.1411, -0.0370, -0.0613, 5.4733, -37.6412, -11.3206
-0.0468, -0.0429, -0.0293, -9.2443, -20.9084, 20.4427
-0.1279, 0.0269, -0.0217, -0.2595, -4.9771, 0.5344
-0.0085, 0.0555, -0.0378, -0.4122, -22.8626, 2.6183
-0.0849, -0.0182, -0.0474, -4.8397, -34.9160, 13.6107
-0.1972, -0.0844, -0.0264, -7.0153, -31.9084, 13.2061
-0.0654, 0.0027, -0.0483, -11.7634, -18.0687, 28.1527
-0.4474, 0.1548, -0.1143, -8.9084, -35.0687, 21.6870
-0.0256, -0.0031, 0.0063, -2.8702, -38.2214, 9.0763
-0.1198, 0.0262, -0.0229, 0.8626, -14.9618, -2.2595
-0.0812, 0.0269, -0.0378, -6.8855, -19.1298, 18.7634
-0.0849, 0.0142, -0.0251, 2.3969, -4.7176, -5.9924
-0.0529, -0.0458, -0.0352, -12.4122, -12.3282, 33.5649
-0.1164, 0.0499, -0.0212, -6.3282, -10.1221, 17.5191
-0.0261, -0.0200, -0.0168, -5.9924, -15.1527, 16.6641
-0.1193, -0.2541, -0.1877, -0.5038, -11.8015, -0.9847
-0.6364, 0.3240, -0.2488, 15.1527, -2.1221, -40.7481
0.2510, 0.2122, 0.3254, 15.2290, 25.2595, -43.3435
-0.1176, -0.0703, -0.1897, 2.5191, 17.2366, -6.5344
-0.1262, 0.0809, -0.0181, 20.9160, 15.7099, -51.8473
-0.0922, -0.0651, -0.0715, 11.0000, 37.8550, -26.1221
-0.0544, -0.0417, -0.0061, 13.0916, 50.1679, -31.7786
-0.1271, -0.0012, -0.0183, 22.4351, 44.3893, -10.9313
-0.1310, -0.0283, -0.0339, 27.2748, 31.9924, 12.9237
-0.1105, -0.0568, -0.0432, 22.0305, 48.1221, 29.6260
-0.1266, -0.0014, -0.0422, 23.5114, 45.9542, 49.5344
-0.1127, -0.0192, 0.0017, -14.7786, 25.0153, 31.0458
-0.0427, 0.1011, 0.0999, -13.1221, -26.0153, 15.7099
-0.0385, 0.1414, 0.0405, -3.3130, -65.6183, 42.3435
-0.1926, -0.0246, -0.1047, 2.7634, -69.0458, 38.6107
-0.3356, -0.1362, -0.1035, 2.8092, -47.0458, 41.4885
-0.2768, -0.0773, -0.0444, -4.2290, -20.0076, 28.9847
-0.2509, 0.0023, -0.0034, -13.9237, -6.7939, 26.6260
-0.2082, 0.0242, 0.1389, -18.8244, -4.3817, 31.7252
-0.2687, 0.0430, 0.2048, -23.4504, -7.0611, 35.0153
-0.1923, 0.0753, 0.3188, -27.0534, -24.0076, 34.0763
-0.1633, 0.0506, 0.3279, -34.4427, -33.4580, 52.9237
-0.2465, 0.0591, 0.1865, -36.9237, -22.2748, 33.6641
-0.1498, 0.1653, 0.0732, -23.2061, -33.4580, 19.5878
-0.1474, 0.0460, 0.0474, 0.0611, -65.9313, 31.7176
-0.2365, 0.0054, 0.0293, -3.3359, -57.2901, 30.9466
-0.1528, 0.0089, 0.0295, -2.1985, -63.2519, 27.5649
-0.1198, 0.0804, 0.0090, 0.7939, -65.3893, 18.4733
-0.1171, 0.0836, 0.0325, 5.5878, -75.2366, 18.4580
-0.1713, 0.0206, 0.0510, -9.0229, -62.3740, 30.2672
-0.2143, -0.0551, 0.0056, -29.7405, -51.2214, 40.0611
-0.1760, -0.0253, -0.0139, -42.7710, -41.5725, 47.0916
0.0750, 0.2545, 0.0479, -6.5038, -65.1908, 47.6412
-0.1210, 0.0687, -0.0173, -4.6489, -65.1298, 40.7176
-0.0615, 0.0643, -0.0217, -21.9008, -53.6183, 46.8931
-0.0588, 0.0511, 0.0020, -9.8092, -56.9237, 40.9542
-0.0749, -0.0051, -0.0205, -15.0840, -51.7863, 35.5649
-0.0485, 0.0054, -0.0215, -24.6794, -44.9695, 29.7023
-0.0148, 0.0079, -0.0305, -32.9084, -35.8931, 27.2137
0.0164, 0.0311, -0.0518, -27.4962, -33.8092, 18.1221
0.0462, 0.0237, -0.0652, -28.0076, -26.3664, 16.2977
0.0897, 0.0508, -0.0491, -28.0916, -24.5649, 8.5115
0.1094, 0.0648, -0.0232, -19.7099, -24.7786, 9.0840
0.0926, 0.0535, -0.0320, -14.6947, -23.4504, 17.7710
0.0875, 0.0276, -0.0417, -16.9924, -15.7634, 23.2443
0.0877, 0.0128, -0.0747, -16.5114, -13.8626, 21.6947
0.0975, 0.0013, -0.0974, -12.3282, -7.1374, 16.5420
0.0516, 0.0447, -0.0312, -7.9084, 8.9313, 19.7328
0.1859, -0.0383, -0.1687, -14.4275, 15.0153, 12.9389
0.1475, -0.0026, -0.1318, -6.5038, 19.9313, 10.3053
0.1419, 0.0103, -0.1711, 5.9542, 31.8244, 19.3664
0.1609, 0.0120, -0.1252, 10.8550, 32.6183, 13.4427
0.1509, -0.0146, -0.1006, 15.5649, 34.2672, 21.3435
0.1893, -0.0129, -0.0618, 17.1221, 22.6260, 17.9924
0.1695, -0.0146, -0.1350, 16.4886, 17.5725, 18.4809
0.2339, 0.0157, -0.1196, 11.0458, 15.1679, 17.0000
0.2938, 0.0701, -0.1516, 4.8092, 21.1985, 23.7405
0.3629, 0.1114, -0.1355, 2.7405, 20.2366, 13.5191
0.3785, 0.0872, -0.0613, 0.5496, 21.5725, 9.4198
0.3643, 0.0784, 0.0239, -11.1450, 20.1145, 19.5878
0.3685, 0.0735, 0.1021, -9.2748, 10.7405, 30.9160
0.2635, 0.0303, 0.1228, 4.2366, -13.3206, 34.7634
0.1734, -0.0659, 0.1143, 25.5954, -31.5649, 28.5191
0.0455, -0.1835, 0.0593, 22.3511, -30.8931, 17.9389
-0.0402, -0.2155, 0.0237, 2.4351, -16.8626, 8.4809
-0.0978, -0.0930, -0.1465, -7.7176, 0.8931, 20.1832
0.0811, -0.0849, -0.0417, 2.5649, 1.5115, -7.5954
0.0401, -0.0834, -0.0671, 4.9542, 7.8626, -18.1298
0.1068, -0.0468, -0.0347, -3.2824, 17.7405, -14.6107
0.1541, -0.0192, 0.0037, 1.5802, 15.3282, -15.2519
0.1614, -0.0131, 0.0132, 13.3740, 9.5878, -15.9237
0.1419, -0.0390, -0.0022, 19.1069, 8.1298, -19.7099
0.1309, -0.0444, 0.0269, 22.5496, 11.0305, -18.0534
0.1570, -0.0388, 0.0442, 21.8473, 13.0763, -19.6031
0.1763, -0.0251, 0.0669, 17.1298, 15.4046, -17.1527
0.2032, 0.0062, 0.0781, 11.6031, 18.1756, -13.2977
0.2042, 0.0218, 0.0645, 5.1832, 18.6718, -10.7328
0.2186, 0.0186, 0.0842, 1.0000, 19.6870, -7.9008
0.2151, 0.0137, 0.1001, 0.9924, 16.6260, -3.8015
0.2051, -0.0082, 0.1008, 2.3893, 10.6565, -0.6794
0.1920, -0.0412, 0.0850, 1.5954, 8.1450, -6.2061
0.1639, -0.0783, 0.0776, 3.9771, 12.1832, -5.9313
0.1964, -0.0685, 0.0610, 3.3053, 9.1374, -11.8626
0.2576, -0.0161, 0.0625, 8.8015, 5.0000, -11.8244
0.2982, -0.0090, 0.0525, 13.0000, 1.7328, -5.8015
0.3199, -0.0102, 0.0547, 13.1298, -2.6412, -0.6794
0.3162, -0.0285, 0.0452, 10.3740, -5.4351, 4.9237
0.3091, -0.0383, 0.0364, 5.7481, -5.4885, 8.5878
0.2794, -0.0480, 0.0530, -0.5878, -4.2672, 9.2901
0.2652, -0.0392, 0.0869, -2.6107, -6.5420, 12.0229
0.2647, -0.0341, 0.1331, -2.5725, -10.3511, 13.2595
0.2642, -0.0324, 0.1431, -3.5344, -12.6641, 18.9160
0.2764, -0.0200, 0.1665, -0.0153, -17.8779, 21.8550
0.2764, -0.0297, 0.1763, 8.1069, -27.7252, 24.7863
0.2488, -0.0651, 0.1675, 10.9618, -34.2748, 32.8626
0.2442, -0.0900, 0.1555, 2.6412, -31.8321, 39.0382
0.2486, -0.0915, 0.1562, -14.8321, -21.7939, 41.2824
0.2791, -0.0507, 0.2095, -25.2595, -19.4886, 45.8168
0.2869, -0.0312, 0.2222, -26.2443, -24.0992, 53.4122
0.2642, -0.0544, 0.1819, -31.1908, -25.6794, 59.7252
0.2525, -0.0656, 0.1494, -37.4962, -23.6641, 62.6031
0.2354, -0.0934, 0.1094, -34.8168, -26.4275, 59.1374
0.1915, -0.1335, 0.0664, -28.2061, -28.2137, 54.8321
0.1487, -0.1718, 0.0020, -23.7099, -24.5573, 43.8626
0.1277, -0.1550, -0.0151, -19.9695, -17.7405, 31.5191
0.1424, -0.0954, -0.0471, -21.2748, -7.6412, 27.1832
0.2173, -0.0261, 0.0103, -30.2443, 0.6031, 18.4046
0.2855, 0.0447, 0.1228, -43.8244, 1.1298, 16.5725
0.2925, 0.0574, 0.1714, -47.2061, -12.0305, 22.0000
0.2842, 0.0267, 0.1584, -43.0382, -26.9695, 32.6412
0.2393, 0.0071, 0.0833, -28.3130, -39.9160, 32.6489
0.2308, -0.0529, -0.0630, -10.4046, -45.2443, 35.4580
0.1829, -0.0895, -0.1096, 3.7252, -43.6947, 25.1756
0.1209, -0.1262, -0.1064, 0.0763, -28.0992, 7.6947
0.1036, -0.1318, -0.0754, -13.5725, -16.9389, -2.7634
0.1363, -0.0688, -0.0232, -26.2901, -1.9466, -7.7634
0.1651, 0.0003, -0.0068, -38.2824, 9.5496, -6.3053
0.1937, 0.0455, 0.0083, -54.1832, 10.6947, 3.0611
0.2122, 0.1109, 0.0205, -50.5191, 12.7481, 10.1450
0.1929, 0.2073, 0.0066, -31.8244, 8.4656, 12.1450
0.0843, 0.0970, -0.3865, -38.7405, -0.7328, 26.2595
0.1094, 0.0093, -0.1008, 1.4198, -6.8321, 22.2519
0.0679, -0.0554, -0.0010, 10.6183, -17.8626, 17.6031
0.1258, -0.0505, 0.0005, 1.0000, -19.3740, -1.3206
0.1365, -0.0029, -0.0037, -7.5191, -9.4809, -12.0611
0.1956, 0.0318, -0.0312, -10.0687, -5.8092, -17.0687
0.2293, 0.0794, -0.0386, -9.9847, 4.1221, -9.2672
0.2354, 0.1136, -0.0276, -1.3053, 5.7786, 1.9084
0.1912, 0.0889, -0.0481, 11.8244, 8.6183, 17.1527
0.0884, -0.0056, -0.0264, 27.7710, 8.2595, 22.9008
0.0110, -0.1191, -0.0098, 26.0992, 7.6718, 22.9160
-0.0720, -0.2057, 0.0295, 13.2595, 12.3053, 10.4198
-0.0781, -0.2126, 0.0483, -5.3282, 19.0382, 0.4580
-0.0080, -0.1169, 0.0642, -20.2977, 19.5496, -1.7939
0.0953, -0.0114, 0.0691, -28.5191, 9.2901, -6.5649
0.1541, 0.0421, -0.0073, -25.9389, 2.9542, -1.9771
0.1407, 0.0040, -0.0427, -17.1145, -1.2137, 6.8168
0.1021, -0.0729, -0.0728, -8.4198, -7.3511, 8.5725
0.0679, -0.1113, -0.0813, -4.1908, -7.9542, -1.4656
0.0518, -0.1313, -0.0830, 0.3664, -8.7176, -12.0916
0.0740, -0.1432, -0.0232, -2.1450, -3.8626, -18.3282
0.0714, -0.1064, 0.0132, -6.1832, 0.6031, -22.4351
0.0897, -0.0671, 0.0222, -3.0229, 1.3130, -21.2290
0.1107, -0.0383, 0.0227, -0.5878, 1.3053, -25.3053
0.1094, -0.0517, 0.0149, 0.9313, 3.7863, -25.3435
0.1126, -0.0544, 0.0225, 6.6870, 2.5802, -17.3359
0.1287, -0.0422, 0.0063, 10.5191, 0.0153, -13.8321
0.1529, -0.0058, 0.0010, 17.6107, -4.0763, -11.1221
0.1321, -0.0214, -0.0049, 27.1450, -12.3588, -16.6107
0.0853, -0.0580, 0.0076, 29.6489, -15.1374, -23.7863
0.0877, -0.0370, 0.0608, 35.0153, -17.9695, -28.5649
0.0977, -0.0163, 0.0828, 42.6031, -20.6718, -27.4198
0.0943, -0.0143, 0.0901, 39.3053, -19.9847, -25.1756
0.1019, -0.0256, 0.0486, 32.7710, -20.7023, -27.2443
0.1558, 0.0181, 0.1096, 37.3588, -27.4122, -28.1221
0.1280, 0.0203, 0.0852, 37.3359, -25.6260, -33.5954
0.1512, 0.0306, 0.0601, 36.4809, -27.6565, -25.2977
0.1458, -0.0053, 0.0466, 30.4886, -26.0992, -21.6794
0.1231, -0.0239, 0.0046, 16.8015, -18.5420, -17.2519
0.1321, -0.0195, 0.0176, 11.1908, -14.6107, -14.6947
0.1434, 0.0045, 0.0391, 4.8244, -11.4962, -10.4656
0.1710, 0.0257, 0.0388, -1.2443, -11.3893, -1.8702
0.1954, 0.0501, 0.0408, -0.1145, -13.4809, 1.7863
0.1939, 0.0579, 0.0364, 1.5267, -14.4351, 3.4122
0.1922, 0.0538, 0.0315, 4.4733, -15.7863, 1.5649
0.1981, 0.0396, 0.0288, 8.9695, -15.3893, 4.1221
0.1707, -0.0131, 0.0137, 12.2901, -12.3817, 5.8702
0.1790, -0.0031, 0.0000, 22.0687, -13.1450, 13.2824
0.2037, 0.0320, 0.0149, 35.7710, -20.5725, 21.1603
0.1937, 0.0457, 0.0547, 48.5954, -27.1374, 28.0382
0.1734, 0.0225, 0.0122, 39.6641, -14.1450, 26.1603
0.1234, 0.0137, 0.0400, 26.5191, 4.6183, 3.7405
0.1990, -0.1486, 0.3025, -23.8397, 42.3435, -29.7328
0.4678, 0.2974, -0.0662, -22.5114, 21.5802, 4.7328
0.2559, 0.1082, -0.0327, 12.8550, 0.4122, 2.0305
0.1609, -0.0197, 0.0583, 13.2519, -0.5115, 8.9847
0.1502, -0.0065, 0.0596, 2.1221, 2.0458, 14.8626
0.1568, 0.0025, 0.0029, -5.0687, 4.6794, 16.8015
0.1846, 0.0606, 0.0920, -16.7481, 3.5649, 25.7557
0.1839, 0.0357, 0.0823, -25.7786, 6.5191, 28.8321
0.2059, 0.0455, 0.0503, -28.1679, 3.4351, 31.1603
0.2447, 0.1092, 0.0989, -20.9618, -1.8473, 24.6031
0.2427, 0.0948, 0.0544, -10.0687, -7.6183, 21.6641
0.3853, 0.2437, 0.2908, -3.6031, -32.5649, 55.0992
0.2401, 0.1060, 0.0349, 6.8015, -35.7252, 53.9695
0.2151, 0.0308, 0.0049, 11.3130, -37.8473, 66.0763
0.1600, -0.0275, -0.0288, 14.0687, -37.7939, 47.4733
0.1253, -0.1215, -0.0054, 4.3893, -35.2824, 25.6412
0.1136, -0.1176, -0.0071, -6.3053, -23.7176, 13.8550
0.1597, -0.0488, -0.0027, -14.4504, -17.2290, 3.4427
0.2234, 0.0489, 0.0305, -2.2672, -20.9237, -5.4962
0.2515, 0.0845, 0.0864, 14.0000, -30.6412, -1.9924
0.2293, 0.0565, 0.0913, 19.2977, -35.1908, 4.0916
0.2098, 0.0135, 0.0950, 12.7023, -35.7252, 11.4427
0.1407, 0.1121, 0.1260, 6.9847, -39.3053, 8.9542
0.2776, 0.0945, 0.0967, 7.8397, -42.2519, 3.1145
0.3018, 0.0508, 0.0579, 10.8855, -40.1832, 11.0382
0.3221, 0.0630, 0.0637, 6.9237, -38.9237, 13.4580
0.3321, 0.0743, 0.0493, 8.5267, -32.3359, 17.1450
0.3309, 0.0599, 0.0520, 4.8473, -29.2061, 24.5725
0.3077, 0.0440, 0.0388, 0.4733, -22.1298, 29.5038
0.2991, 0.0316, 0.0342, -2.8779, -18.1374, 24.9924
0.3172, 0.0281, 0.0547, -7.6565, -11.2901, 20.4809
0.2996, -0.0009, 0.0525, -7.2214, -1.5115, 22.9618
0.3260, 0.0103, 0.0403, -14.8168, 8.0458, 19.6947
0.3389, 0.0079, 0.0410, -16.4046, 10.7710, 17.7023
0.3895, 0.0193, 0.0972, -20.2595, 9.7252, 10.1679
0.3878, 0.0403, 0.0774, -32.0458, 16.3282, 11.9313
0.3609, -0.0063, 0.0569, -39.5115, 27.0382, 25.8244
0.3331, -0.0424, 0.0271, -36.8321, 26.2366, 15.0153
0.3484, 0.0206, 0.0745, -23.4886, 16.2901, 13.4351
0.3441, -0.0097, 0.0410, -17.4351, 15.1145, 23.0458
0.3763, 0.0670, 0.0469, -27.9618, 33.2214, 32.7099
0.3419, -0.1879, 0.0464, -63.5344, 62.8092, -9.8168
0.4468, 0.1014, -0.0479, -43.6794, 52.6336, -27.0153
0.4464, 0.0975, 0.0635, 17.5725, 9.9618, -6.1908
0.3931, 0.0523, 0.0425, 50.3664, -5.2366, 3.2214
0.4041, -0.0060, -0.0508, 68.8702, -3.7405, 17.1756
0.3487, -0.0720, 0.0564, 69.7328, -11.7634, 21.9008
0.3272, -0.0678, 0.0466, 60.8321, -9.2214, 7.6718
0.3360, -0.0663, -0.0247, 38.4275, -0.4580, -2.9695
0.3646, 0.0240, 0.0349, 21.7176, 0.1756, -11.4198
0.3831, -0.0065, -0.0022, 7.6260, -8.9618, -20.4122
0.4239, 0.1292, 0.0486, 23.3664, -12.4580, -12.8931
0.6295, 0.5115, -0.1687, 113.3817, -40.6718, 39.8244
0.4190, -0.0502, 0.1389, 150.4198, -64.5954, 46.5496
0.3096, -0.0507, 0.0220, 54.1756, -17.6718, -30.8931
0.3414, 0.0462, 0.0457, 42.7863, -6.1527, -27.2901
0.2943, 1.0472, -0.4055, -38.9695, 32.0916, 26.8321
0.5740, 0.4566, 0.2229, -3.9313, 22.7710, -31.4656
0.3043, 0.0098, -0.1431, 27.5496, -8.2519, -3.3206
0.2913, -0.0549, 0.0437, -8.3282, 11.0458, -36.2366
0.2950, 0.0325, 0.0093, -25.0916, 33.6794, -67.1832
0.3184, 0.0648, 0.0144, -17.3740, 34.8092, -94.8855
0.3150, 0.0350, 0.0312, -28.9237, 47.6794, -91.9618
0.3248, 0.0513, 0.0366, -43.0611, 57.4656, -92.2595
0.3172, 0.0931, 0.0532, -43.2595, 63.0382, -80.5649
0.3045, 0.1165, 0.0891, -42.6641, 34.7863, -83.6870
0.4825, -0.1655, 0.6826, -39.7176, -2.0382, -80.0992
0.3128, 0.0350, 0.1067, -26.7176, 16.5038, -51.9237
0.3004, -0.0275, 0.0378, -25.5878, 7.5725, -49.8244
0.3052, -0.0297, 0.0029, -28.8092, 3.6641, -56.2290
0.3177, -0.0893, -0.0063, -35.8397, 11.1298, -55.7863
0.3572, -0.0561, -0.0403, -25.9237, 25.2290, -35.8931
0.3704, -0.0905, 0.1199, -1.8473, 45.1832, -56.7634
0.3348, 0.0215, 0.0698, -23.4656, 32.9008, -40.3435
0.3182, -0.0536, 0.1077, -31.2061, 31.8626, -45.3969
0.3682, 0.2037, 0.1416, -10.4198, 24.6031, -29.6260
0.3206, 0.0731, 0.1506, -21.3435, 22.2290, -59.8626
0.2908, 0.1602, 0.1350, 22.9160, 40.7939, -42.2672
0.4478, -0.9995, 0.6304, 12.0840, 91.2977, -141.4351
0.2930, -0.2385, 0.1013, -17.1450, 94.6641, -46.1832
0.3414, 0.2230, -0.2185, 7.2672, 73.5802, 14.0992
0.4554, -0.1349, 0.0691, 8.9695, 5.2443, -1.0840
0.2545, -0.0473, -0.0642, 28.6947, 12.4427, 7.4733
0.2672, -0.1181, 0.0344, 21.6794, 16.4504, 23.5496
0.2300, -0.0761, 0.0161, 17.2214, 15.0534, 29.4504
0.2413, -0.0839, 0.0159, 6.2443, -0.8397, 52.2672
0.2718, -0.0261, 0.0598, 0.5878, -4.9237, 56.2366
0.2964, 0.0005, 0.0417, 4.3435, -6.8931, 45.6870
0.2598, -0.0788, 0.0151, -3.7176, -6.6489, 32.8168
0.2410, -0.0805, 0.0481, 34.8550, 30.9695, -39.4122
0.2520, -0.0121, -0.0994, -16.0305, 0.1069, -0.7710
0.2086, -0.0629, 0.0708, -24.2290, 3.1832, -10.9924
0.2139, -0.0248, 0.0513, -30.4962, 4.0076, -15.3511
0.2149, -0.0153, 0.0591, -15.9542, -0.2748, -9.7710
0.2142, -0.0229, 0.0488, -5.1221, -7.2672, -4.3206
0.2249, -0.0041, 0.0168, 4.6412, -12.9771, 9.3130
0.2027, -0.1020, 0.0129, -0.0992, -19.9618, 11.4275
0.1922, -0.1096, -0.0071, -14.9924, -9.1832, 8.5725
0.1729, -0.1230, -0.0237, -20.7328, 0.5267, -1.9771
0.1675, -0.0925, -0.0083, -17.7099, 6.6565, -14.5267
0.1922, -0.0683, -0.0237, -9.3053, 4.0153, -15.4656
0.2193, -0.0163, 0.0745, -3.9542, -2.9618, -15.9084
0.2542, 0.0010, 0.0396, 4.6336, -6.6641, -7.4962
0.2532, 0.0342, 0.1079, 34.4962, -6.6412, 6.1298
0.2213, -0.0207, 0.0657, 34.4504, -15.4427, 11.8092
0.2093, -0.0690, 0.0037, 11.1603, -3.8931, 4.1985
0.2247, -0.0397, 0.0122, 3.9542, -3.5802, -3.9084
0.2105, -0.0073, 0.0283, 13.2290, -10.9160, -19.7710
0.1050, -0.1386, -0.0002, 13.8702, 1.8550, -19.7099
0.1509, 0.0323, 0.1372, 14.7786, 19.3893, -12.8168
0.1902, 0.0215, 0.0945, 24.6947, 4.1908, -6.8550
0.1546, -0.0773, 0.0195, 30.4046, -5.9847, -1.1679
0.2103, 0.0823, -0.0449, 17.1298, -4.0076, -6.8244
0.5298, 0.2183, 0.0417, -9.2214, -19.8779, 5.3130
0.2344, 0.0948, 0.0586, -14.0153, 13.3969, -5.9771
0.2459, 0.0743, 0.1177, -3.2748, 1.1832, 0.4427
0.1780, 0.0193, 0.1584, 4.7634, 2.4885, -0.0611
0.1185, 0.0020, 0.1140, 13.2672, 3.8092, 7.0076
0.1002, 0.0010, 0.2180, 24.0687, -2.4427, 22.6718
0.0533, 0.0071, 0.2830, 31.3969, -0.7328, 23.4351
0.2012, 0.0728, 0.1084, 37.0458, -8.9618, 31.0305
0.2647, 0.0384, -0.0266, 35.8779, -6.3969, 29.7405
0.2706, 0.0115, -0.0474, 28.0000, -13.7863, 31.5114
0.2510, 0.0753, -0.0251, 8.8779, -4.8168, 25.5573
0.2208, 0.0355, 0.0549, -4.2443, -1.2901, 16.0076
0.1656, 0.0045, 0.1121, -4.8550, -8.2366, 7.8702
0.1146, -0.0139, 0.1272, -2.0382, -13.8168, 4.6183
0.1700, 0.0335, 0.0627, 2.1603, -13.6794, 3.2366
0.1724, 0.1983, 0.0598, 18.3435, 4.1527, 49.3511
0.4224, -0.2397, 0.0496, -1.6870, 7.1985, 25.0534
0.2808, 0.0640, 0.1255, -19.5267, -2.4427, -2.0382
0.2049, 0.2503, 0.1733, 8.2824, 4.9084, 27.1679
0.4246, -0.2551, 0.0044, -1.9847, 6.5954, 24.0153
0.2613, 0.1214, 0.0735, -19.3130, 5.8244, -0.4962
0.2037, 0.1446, -0.0723, 35.1832, 41.8397, 97.8473
0.3553, -0.2126, -0.0605, -43.6870, -5.3664, -42.1908
0.2530, 0.0889, 0.0137, -26.6641, 13.3740, -17.0687
0.5169, -0.3600, -0.0488, -32.1679, -3.9695, 6.3893
0.4268, 0.0643, 0.1038, -27.5344, -7.8550, -26.8397
0.3560, 0.0850, 0.0464, -20.6336, -16.7863, -2.0458
0.3192, -0.0234, -0.0146, -20.1298, -14.3511, 9.9466
0.2640, -0.0475, -0.0378, -23.0687, -9.5954, 3.0763
0.1873, -0.0378, 0.0647, -24.1527, -6.4427, 5.8550
0.1690, -0.0178, 0.1177, -22.4046, -11.1450, 19.4046
0.2508, -0.0080, 0.0657, -15.3130, -27.5420, 18.1985
0.2974, 0.2073, 0.0913, -3.9542, -23.5420, 53.2214
0.2213, 0.0159, 0.1292, 8.8779, -36.7328, 37.1832
0.2962, -0.0161, -0.1746, 11.3588, -54.5344, 45.0229
0.2122, 0.1192, 0.2275, 0.6260, -47.0458, 47.5878
0.2715, -0.0207, 0.0093, -1.1450, -43.1069, 28.0076
0.2725, -0.0688, -0.0146, -18.0153, -50.0687, 42.5725
0.2943, 0.0801, 0.0793, -13.4885, -44.0992, 27.3817
0.3973, 0.0455, -0.1150, -45.5496, -1.5115, 10.8015
0.2398, -0.0707, 0.0898, -80.6565, 27.1985, -6.4733
0.2496, -0.0468, 0.0564, -90.0611, 22.4580, -32.7863
0.2198, -0.0278, 0.0234, -91.1756, 32.1069, -33.3893
0.2801, -0.0344, 0.0090, -79.1908, 18.0458, -37.6336
0.2598, -0.0439, -0.0063, -63.4733, 3.5115, -31.4886
0.2628, -0.0781, 0.0144, -56.8702, -7.1756, -24.7634
0.2425, -0.0690, 0.0901, -39.0611, -20.4198, -12.9695
0.2120, -0.1113, 0.0813, -18.8015, -29.5573, -2.7710
0.1883, -0.1906, 0.0251, -27.8473, -34.2061, -12.9542
0.2047, -0.1601, 0.0168, -34.1221, -12.7481, -25.8168
0.2596, -0.1049, -0.0632, -43.7557, -8.7328, -12.7786
0.2838, -0.0573, -0.0393, -30.8550, -7.2824, -0.4122
0.2474, -0.1376, -0.0042, -10.7557, -10.9924, 6.9313
0.1634, -0.2272, -0.0054, -13.1069, -12.0382, 4.8779
0.1253, -0.2805, -0.0396, -30.1298, -1.3053, -6.2672
0.1646, -0.2170, -0.0344, -43.4198, 9.6336, -14.3588
0.2545, -0.1325, -0.0593, -47.5649, 17.2519, -11.7252
0.2784, -0.0939, -0.0564, -53.1679, 21.6489, -13.7557
0.2591, -0.1389, -0.0156, -61.7405, 26.6336, -16.9237
0.2186, -0.1679, -0.0132, -60.0076, 22.3359, -19.5191
0.1890, -0.1940, -0.0100, -52.8015, 17.3053, -23.9466
0.1810, -0.1303, 0.0261, -30.0992, 9.6412, -20.5954
0.1727, -0.1501, 0.0554, 0.2824, -5.2366, -4.9466
0.1744, -0.1760, 0.0671, 18.1145, -13.9618, 3.8397
0.1487, -0.2109, 0.0496, 17.9313, -11.7557, 3.0611
0.1470, -0.1916, 0.0718, 15.5573, -9.4122, -1.0611
0.1439, -0.1845, 0.1050, 19.8779, -8.3893, -0.8244
0.1348, -0.1896, 0.0989, 26.4427, -7.5725, 3.5802
0.1280, -0.2094, 0.0615, 29.4733, -7.5573, 2.1985
0.1085, -0.2463, 0.0276, 24.6565, -3.6107, 3.2748
0.1036, -0.2331, 0.0249, 12.6718, -1.3130, 6.4427
0.1002, -0.1994, 0.0625, 5.6412, -0.7405, 3.0229
0.1024, -0.1923, 0.0947, 1.1069, -6.6870, 0.5649
0.1068, -0.1574, 0.1113, 3.4580, -9.8168, 5.9771
0.1378, -0.1298, 0.1011, 12.8931, -12.0534, 16.6412
0.1641, -0.1179, 0.0906, 19.8397, -13.1527, 20.9618
0.1778, -0.1220, 0.0513, 28.3435, -15.1221, 28.3435
0.1253, -0.2255, 0.0261, 12.9084, -10.2595, 17.3282
0.1016, -0.2326, 0.0056, -3.8397, 0.8321, 5.6183
0.1209, -0.1786, 0.0398, -5.8015, 6.5573, 1.7405
0.1224, -0.1723, 0.0652, -6.1679, 8.2824, 1.4733
0.1241, -0.1916, 0.0667, -3.6031, 5.6870, 8.6947
0.1363, -0.1625, 0.0588, 7.4427, -0.7786, 19.5344
0.1583, -0.1411, 0.0549, 23.2595, -9.3664, 30.4351
0.1541, -0.1718, 0.0222, 31.6641, -12.0916, 37.4962
0.1324, -0.2460, -0.0071, 19.6260, -7.6718, 25.7557
0.0926, -0.2726, -0.0076, -8.5267, 5.8168, 7.3053
0.1048, -0.1916, 0.0073, -23.0153, 15.8321, -5.0840
0.1331, -0.1459, 0.0256, -24.2901, 18.6031, -10.9084
0.1517, -0.0971, 0.0396, -21.0916, 20.0534, -15.3588
0.1483, -0.1203, 0.0398, -15.6641, 16.9466, -16.8702
0.1299, -0.1577, 0.0266, -15.3664, 14.6870, -16.1908
0.1185, -0.1476, -0.0029, -12.6641, 13.3435, -16.1298
0.1282, -0.0920, 0.0503, 3.0840, 8.6107, -9.3282
0.1209, -0.1078, 0.0454, 18.0763, -0.5496, -2.8626
0.0623, -0.1747, 0.0007, 16.4656, -3.5191, -7.8397
0.0074, -0.2231, -0.0090, 0.8397, 6.1145, -16.6641
-0.0019, -0.1772, 0.0164, -8.6183, 15.6031, -27.4427
0.0169, -0.1450, 0.0688, 2.0458, 9.2214, -25.6336
0.0298, -0.1503, 0.0432, 14.8397, 3.6489, -13.2977
0.0545, -0.1633, 0.0505, 10.4046, 9.0305, -8.8626
0.0821, -0.1362, 0.0557, 2.3511, 16.9237, -8.2519
0.1214, -0.0886, 0.0596, 5.9237, 17.5420, -1.1069
0.1473, -0.0483, 0.0576, 16.8550, 16.5496, 10.9237
0.1893, -0.0654, 0.0483, 28.5802, 12.8321, 21.0458
0.1619, -0.1486, 0.0127, 16.4656, 18.8855, 7.0916
0.1448, -0.1591, -0.0200, 2.6947, 32.2977, 5.3664
0.1238, -0.1293, -0.0242, -7.3130, 40.2443, 11.8397
0.1763, -0.1169, 0.0225, -9.1145, 39.5191, -9.1450
0.2044, -0.0871, 0.0356, -1.7786, 35.3053, -8.4580
0.2567, -0.0534, 0.0532, 3.7405, 35.3511, -7.0916
0.2859, -0.0969, 0.0400, -2.9542, 35.6565, -10.3435
0.2886, -0.0859, 0.0305, -4.7176, 37.2214, -10.4733
0.2403, -0.1620, 0.0544, -3.1985, 36.0305, -18.3206
0.1680, -0.2094, 0.0488, -7.2519, 35.5496, -28.7786
0.1868, -0.2199, 0.0251, -10.9618, 33.9771, -46.4885
0.2154, -0.2184, -0.0308, -19.5420, 36.3817, -67.8779
0.2520, -0.1957, -0.0278, -15.4656, 40.7099, -72.0076
0.3052, -0.1213, 0.0051, -7.0000, 35.6718, -62.1450
0.3687, -0.0314, 0.0503, 4.9389, 24.8626, -35.2901
0.2847, -0.1818, 0.0366, 11.3206, 17.7481, -20.8855
0.2015, -0.2641, -0.0046, 5.2366, 20.6489, -23.6260
0.1961, -0.2670, 0.0164, 5.7786, 13.1145, -32.9618
0.1185, -0.2868, 0.0010, 1.6260, 15.6870, -34.4122
0.1251, -0.2787, 0.0317, 2.6260, 14.1221, -39.3130
0.1370, -0.2744, 0.0227, -3.1832, 19.5114, -39.1908
0.1863, -0.2397, 0.0437, -9.1527, 22.4580, -46.8244
0.2422, -0.2126, 0.0437, -15.2977, 19.7328, -49.3893
0.2623, -0.1982, 0.0391, -20.5649, 20.1679, -49.3511
0.2393, -0.1994, 0.0500, -21.4733, 20.1298, -45.7557
0.2003, -0.2177, 0.0374, -16.5802, 20.0229, -38.3130
0.1536, -0.2656, -0.0164, -17.7252, 24.4580, -37.2901
0.1556, -0.2658, -0.0376, -20.3206, 29.2595, -38.5496
0.1749, -0.2460, -0.0264, -13.0992, 25.6031, -36.4885
0.2051, -0.2495, -0.0171, -6.6641, 19.6718, -30.1374
0.2610, -0.2370, -0.0254, -0.0534, 14.2595, -21.9389
0.2828, -0.2253, -0.0498, 3.5115, 9.7099, -15.2443
0.2798, -0.2629, -0.0654, -1.7634, 12.9466, -12.6412
0.2298, -0.2905, -0.0793, -9.5420, 22.8473, -16.2214
0.1873, -0.3046, -0.0703, -12.4656, 26.2366, -19.1679
0.1392, -0.3076, 0.0049, -14.0458, 25.8168, -24.1450
0.1556, -0.2880, 0.0471, -11.5878, 22.4427, -24.3969
0.1937, -0.2756, 0.0608, -4.4275, 13.7252, -24.6107
0.2122, -0.2617, 0.0764, -3.5649, 7.4351, -15.3893
0.1995, -0.2927, 0.0251, -7.4885, 8.3511, -10.7176
0.1556, -0.3029, 0.0103, -4.3130, 9.7634, -12.4733
0.1404, -0.3120, 0.0115, 1.6107, 8.9771, -13.4962
0.1448, -0.3032, 0.0186, 2.6489, 9.0992, -14.1374
0.1480, -0.3029, 0.0366, 3.7328, 9.4351, -14.1450
0.1475, -0.2927, 0.0466, 2.1450, 8.0458, -15.0076
0.1624, -0.3005, 0.0308, -2.8626, 6.1679, -11.5420
0.1697, -0.2878, 0.0164, -10.6489, 10.5344, -7.9313
0.1739, -0.2812, 0.0110, -12.5573, 10.6794, -3.5496
0.1839, -0.2946, 0.0166, -8.1298, 7.8931, -3.9313
0.1900, -0.3046, 0.0095, -7.5420, 7.3969, -3.3206
0.2003, -0.2995, -0.0266, -7.2901, 9.0229, -1.9924
0.1995, -0.3061, -0.0366, -7.3588, 7.2901, -1.9542
0.1895, -0.3161, -0.0249, -7.9924, 8.1756, -0.6260
0.1800, -0.3151, -0.0127, -6.0153, 6.3664, -1.3969
0.1859, -0.3110, -0.0256, -5.6565, 1.6260, 0.8092
0.1983, -0.3093, -0.0491, -4.7405, -1.2824, 6.7710
0.2139, -0.2914, -0.0339, -2.8168, -2.6489, 6.6565
0.2234, -0.2990, -0.0249, -2.3969, -5.6412, 9.3893
0.2130, -0.3056, -0.0098, -4.1985, -7.7252, 14.1679
0.2090, -0.3141, -0.0081, -4.5038, -7.7023, 16.4427
0.1978, -0.3207, -0.0198, -4.5954, -6.6947, 16.6412
0.1922, -0.3027, 0.0015, -0.7710, -6.6718, 17.5802
0.1768, -0.3129, 0.0310, 6.4580, -8.0763, 18.3511
0.1629, -0.2895, 0.0085, 8.9160, -14.0076, 18.8321
0.1761, -0.3239, 0.0273, 13.1145, -16.6260, 24.7176
0.1805, -0.3166, 0.0295, 13.8702, -15.8244, 24.5725
0.1817, -0.3129, 0.0276, 13.3282, -14.4122, 28.4504
0.2032, -0.2941, 0.0088, 15.5191, -13.6412, 30.3588
0.1932, -0.3183, -0.0105, 15.7099, -14.8855, 32.4427
0.1942, -0.3185, -0.0078, 5.9160, -13.8244, 30.4046
0.1934, -0.3185, -0.0037, 3.2061, -13.8473, 28.4351
0.2047, -0.2949, -0.0176, 3.1145, -14.1145, 28.7099
0.1995, -0.2734, -0.0022, 5.1374, -16.8244, 29.2748
0.1893, -0.2780, 0.0208, 8.1069, -19.1756, 30.2214
0.1783, -0.2839, -0.0010, 1.4962, -21.8550, 34.3282
0.1663, -0.3139, 0.0076, -6.1679, -21.7557, 33.6489
0.1646, -0.3293, 0.0022, -8.3511, -25.6260, 30.5114
0.1639, -0.3427, 0.0117, -12.0229, -31.8397, 27.4046
0.1954, -0.3102, 0.0046, -15.1374, -35.8015, 33.5802
0.2481, -0.2714, -0.0381, -16.7252, -38.9847, 39.7481
0.2789, -0.2492, -0.0623, -23.0000, -31.0076, 40.3817
0.2505, -0.2248, -0.0596, -22.1756, -21.9618, 37.6260
0.1666, -0.2690, -0.0518, -22.0153, -12.0992, 36.7634
0.1085, -0.2827, -0.0098, -22.6031, -9.0992, 30.6183
0.0613, -0.2973, 0.0413, -20.1221, -13.0153, 30.4427
0.0391, -0.3044, 0.0669, -15.6718, -20.5038, 33.9924
0.0306, -0.3327, 0.0444, -10.6336, -30.6489, 35.5191
0.0579, -0.3307, 0.0125, -9.3664, -35.6565, 35.9237
0.1216, -0.2910, -0.0500, -10.1832, -38.9084, 39.7786
0.1536, -0.2980, -0.0649, -12.7405, -30.5496, 37.4122
0.1451, -0.2961, -0.0396, -14.0534, -20.7176, 34.3664
0.1114, -0.2504, 0.0022, -12.5420, -17.1679, 29.1145
0.0926, -0.3378, 0.0269, -15.5878, -13.6870, 29.4198
0.1126, -0.3012, 0.0752, -2.5191, -23.0382, 28.3282
0.1478, -0.2770, 0.0742, 10.3969, -30.7634, 27.3130
0.1932, -0.2424, 0.0459, 26.6641, -33.4427, 25.0153
0.2156, -0.2416, -0.0139, 35.4809, -33.3206, 18.6870
0.2073, -0.2585, -0.0330, 24.8092, -15.6260, 17.5802
0.2139, -0.2309, -0.0237, 16.4198, 3.5573, 10.7786
0.1932, -0.2289, -0.0005, 14.6794, 11.3359, 9.3969
0.1636, -0.2470, 0.0095, 8.1069, 11.7863, 2.3664
0.1451, -0.2397, -0.0049, -6.5954, 5.6412, 2.6412
0.1612, -0.2184, -0.0078, -11.3282, -2.9237, 9.0305
0.1729, -0.2018, -0.0007, -15.5878, -10.6794, 19.7405
0.1824, -0.1870, -0.0486, -15.3817, -11.9389, 26.3282
0.1902, -0.1972, -0.0754, -15.2824, -12.1908, 30.5496
0.1456, -0.2324, -0.0862, -22.9313, -4.0076, 27.1145
0.1422, -0.1901, -0.0674, -25.7099, 2.4733, 20.4122
0.1524, -0.1574, -0.0088, -19.0000, -1.2901, 19.9237
0.1478, -0.1635, 0.0046, -11.8473, -5.8015, 24.5573
0.1312, -0.1630, 0.0281, -3.6718, -9.3893, 27.4962
0.0823, -0.1840, 0.0420, 1.7176, -11.1527, 28.1756
0.0389, -0.2153, 0.0400, 3.1450, -10.0763, 27.2443
0.0296, -0.2079, 0.0244, 7.9313, -12.2366, 26.4122
0.0379, -0.2089, 0.0176, 11.4962, -11.8244, 22.6794
0.0596, -0.2021, 0.0056, 10.2366, -7.5115, 22.8931
0.0714, -0.2043, -0.0286, 9.7328, -2.3130, 22.6870
0.0687, -0.2121, -0.0334, 4.5496, 5.7710, 18.2748
0.0616, -0.2131, -0.0325, 2.5954, 9.5802, 12.0534
0.0535, -0.1821, -0.0393, 10.1985, 4.6718, 10.1069
0.0550, -0.1840, -0.0354, 19.9618, -2.8626, 10.2595
0.0355, -0.2045, -0.0847, 22.5649, -1.6031, 4.8550
0.0316, -0.1989, -0.0432, 22.0382, 3.9389, 1.5496
0.0159, -0.2016, -0.0164, 12.1679, 7.3588, -0.2824
0.0237, -0.1904, 0.0125, 7.0992, 8.9313, -0.2595
0.0267, -0.1953, 0.0186, 3.8626, 7.0687, -3.1374
0.0381, -0.1786, 0.0020, -4.6183, 4.7252, -4.7481
0.0775, -0.1606, -0.0020, -3.7328, 3.1832, -2.2366
0.0887, -0.1384, 0.0098, -1.5496, 0.6412, 0.2519
0.0794, -0.1525, 0.0479, 5.8168, -4.0763, 6.1069
0.0469, -0.1728, 0.0271, 9.4580, -6.5344, 8.5420
0.0457, -0.1974, 0.0161, 9.8397, -5.3893, 7.6718
0.0284, -0.2077, 0.0090, 4.8931, -0.3893, 2.9618
0.0262, -0.1970, -0.0012, 4.6947, 0.2977, 1.6870
0.0298, -0.1918, 0.0239, 8.0916, -4.5573, 3.8702
0.0191, -0.2141, 0.0103, 8.1985, -5.7786, 2.9695
0.0235, -0.2040, 0.0071, 5.3435, -3.3969, 1.0305
0.0403, -0.1708, 0.0095, 7.1756, -2.5954, 2.0840
0.0386, -0.1782, 0.0486, 11.8779, -7.4962, 6.5954
0.0027, -0.2150, 0.0049, 9.9084, -8.9313, 5.0992
-0.0048, -0.2426, -0.0110, 3.1374, -3.2366, -0.3740
0.0152, -0.2101, 0.0271, 1.0992, -1.3206, -3.3053
0.0130, -0.2175, 0.0068, 5.0687, -5.0382, -1.3588
0.0067, -0.2180, 0.0044, 4.9160, -5.0382, -3.2290
0.0003, -0.2167, 0.0320, 3.3511, -5.5802, -4.4885
0.0049, -0.1911, 0.0403, 4.0000, -7.1603, -2.9237
0.0062, -0.1918, 0.0193, 1.4580, -6.1221, -3.0916
-0.0104, -0.1999, 0.0227, -5.4885, -2.6489, -6.5725
-0.0263, -0.2026, 0.0193, -8.7328, -3.2366, -8.2137
-0.0400, -0.1821, 0.0283, -10.3664, -4.5115, -9.9771
-0.0368, -0.1682, 0.0442, -6.2214, -9.6260, -8.8168
-0.0568, -0.1801, 0.0359, -3.1221, -13.9618, -7.9008
-0.0502, -0.1581, 0.0117, -0.4198, -16.3740, -6.5420
-0.0417, -0.1635, 0.0085, 9.0000, -21.0840, -3.7634
-0.0414, -0.1616, 0.0259, 15.3511, -23.3282, -1.7557
-0.0109, -0.1323, 0.0435, 23.6565, -25.2214, 2.7939
0.0062, -0.1061, 0.0635, 33.7481, -31.4427, 13.7176
0.0313, -0.1247, 0.0618, 38.1221, -35.8855, 21.6031
0.0643, -0.1152, 0.0229, 33.4504, -34.1527, 25.3511
0.0601, -0.0969, 0.0391, 27.9389, -26.0229, 21.9466
0.0430, -0.0983, 0.0413, 27.4198, -19.2901, 15.0611
-0.0156, -0.1916, 0.0156, 15.1756, -7.6336, -0.7863
-0.0451, -0.1918, 0.0105, -0.2061, 5.0305, -16.5802
-0.0207, -0.1870, 0.0049, -8.5496, 13.7252, -27.3969
0.0037, -0.1909, 0.0081, -18.5725, 23.4504, -32.6107
0.0469, -0.1179, 0.0215, -28.5649, 33.9008, -32.5573
0.1248, -0.0583, 0.0576, -35.3588, 43.0840, -30.9160
0.1590, -0.0263, 0.0474, -19.9237, 41.2595, -20.5267
0.1756, -0.0261, 0.0593, 1.4580, 37.6107, -8.1603
0.1854, -0.0200, 0.0254, 17.5802, 34.2366, 6.9771
0.1771, -0.0427, 0.0225, 28.0611, 40.7634, 8.2366
0.1724, -0.0939, 0.0527, 36.1908, 45.5496, 9.6641
0.1680, -0.1511, 0.0146, 33.0458, 39.3817, -2.4809
0.1463, -0.1743, 0.0027, 24.4886, 48.2290, -4.8473
0.1732, -0.1647, -0.0061, 11.2366, 61.1450, -8.1679
0.1939, -0.1408, 0.0315, 4.0534, 61.7710, -8.6107
0.1888, -0.1284, 0.0525, 0.5038, 62.4962, -17.0153
0.1590, -0.0981, 0.0706, 1.6412, 57.5038, -25.0229
0.1512, -0.0776, 0.0579, 18.2137, 47.9771, -21.9847
0.1126, -0.1108, 0.0164, 33.8321, 44.8473, -18.0992
0.0504, -0.1987, -0.0088, 34.2061, 49.9313, -18.4351
0.0313, -0.2309, -0.0037, 23.6947, 55.9466, -30.3817
0.0467, -0.1835, -0.0188, 14.2443, 48.8855, -38.2443
0.0723, -0.1530, -0.0022, 16.1145, 42.0305, -38.0153
0.1077, -0.1916, 0.0081, 10.1908, 40.8931, -36.1298
0.0972, -0.1660, 0.0342, -3.8015, 31.8473, -43.1985
0.1050, -0.1005, -0.0007, 2.8321, 32.8931, -35.2443
0.1170, -0.1010, -0.0022, 11.8931, 38.4351, -17.3435
0.1307, -0.0805, -0.0071, 31.5344, 32.5725, -5.0076
0.1116, -0.1547, -0.0366, 38.1145, 29.0916, -0.1374
0.0828, -0.1918, -0.0657, 30.6260, 31.2748, -6.3817
0.0626, -0.1750, -0.0613, 22.4122, 24.4504, -16.2595
0.0223, -0.1916, -0.0657, 18.2290, 23.1908, -19.2977
0.0335, -0.2180, -0.0662, 7.3053, 24.3588, -30.0916
0.0513, -0.1494, -0.0815, -1.0534, 28.0840, -33.7252
0.0718, -0.1418, -0.0703, -2.8855, 34.0076, -35.8931
0.0594, -0.1000, -0.0376, 0.3664, 32.8855, -30.9466
0.0462, -0.1120, -0.0068, 2.0229, 29.7023, -24.9237
0.0125, -0.1225, 0.0059, 2.8397, 25.5954, -23.8550
-0.0246, -0.1384, -0.0002, 4.4122, 20.3740, -20.6031
-0.0131, -0.1452, -0.0276, 5.4504, 13.0840, -21.8702
-0.0251, -0.1469, -0.0576, 9.4122, 5.4580, -15.9847
-0.0107, -0.1518, -0.0652, 10.7099, 1.4656, -16.4046
0.0247, -0.1276, -0.0522, 15.4275, -0.8855, -18.3588
0.0596, -0.1325, -0.0645, 23.5649, -2.7557, -15.8779
0.0696, -0.1669, -0.0505, 25.4122, -3.9008, -19.8550
0.0709, -0.1513, -0.0454, 23.2595, 1.7481, -24.3893
0.0413, -0.1660, -0.0215, 18.8550, 3.0840, -30.5954
0.0106, -0.1315, 0.0308, 16.5802, 5.7863, -24.5114
0.0062, -0.1467, 0.0378, 15.6107, -0.1374, -22.1832
-0.0139, -0.1628, 0.0505, 14.6565, 3.3282, -22.9160
0.0054, -0.1733, 0.0247, 13.0840, 5.9924, -26.9771
0.0460, -0.1645, -0.0051, 11.7176, 8.6260, -29.1908
0.0679, -0.1423, 0.0249, 13.4427, 11.3206, -33.5267
0.0855, -0.1254, 0.0283, 16.6183, 7.7786, -26.2824
0.0677, -0.1213, 0.0474, 18.2443, 5.5649, -16.9466
0.0621, -0.1364, 0.0483, 20.3817, 0.0153, -9.3206
0.0379, -0.1620, 0.0530, 20.0076, -1.6489, -10.6183
0.0164, -0.1591, 0.0396, 17.3435, 1.2061, -13.6489
0.0247, -0.1669, 0.0291, 15.9618, 2.6870, -12.1069
0.0330, -0.1667, 0.0015, 10.6107, 4.7634, -13.8473
0.0799, -0.1672, 0.0181, 7.0305, 4.2748, -14.7405
0.1016, -0.1518, 0.0146, 4.6336, 2.0534, -11.9160
0.0953, -0.1506, 0.0210, 3.9924, 2.7023, -5.9542
0.0777, -0.1540, 0.0337, 5.5038, -1.2443, -2.0382
0.0652, -0.1564, 0.0107, 6.1756, -2.8855, 0.6565
0.0418, -0.1699, 0.0220, 7.5649, -4.5191, 1.2137
0.0411, -0.1638, 0.0215, 6.0382, -4.0992, 2.3740
0.0557, -0.1686, -0.0051, 1.6183, -2.7939, 4.0000
0.0767, -0.1403, 0.0002, 0.4351, -1.0916, 5.9771
0.0916, -0.1230, 0.0042, 1.9618, -2.2672, 9.6489
0.0787, -0.1274, 0.0210, 4.5115, -7.0153, 14.9542
0.0518, -0.1430, 0.0146, 5.8015, -10.5954, 19.4580
0.0555, -0.1513, 0.0283, 4.8779, -14.3511, 20.8550
0.0655, -0.1352, 0.0366, 7.3282, -20.4504, 19.4504
0.0738, -0.1552, 0.0505, 8.7176, -23.6947, 19.4275
0.0850, -0.1684, 0.0334, 4.0916, -23.6870, 15.5115
0.1214, -0.1511, 0.0300, -0.7786, -23.7328, 13.2901
0.1563, -0.1349, 0.0354, -1.7176, -21.7023, 15.6641
0.1583, -0.1406, 0.0696, 0.1450, -27.6947, 15.3511
0.1736, -0.1376, 0.0669, 1.2672, -31.3969, 13.0687
0.2376, -0.1396, 0.0762, -2.4122, -34.1527, 12.1527
0.2545, -0.1027, 0.0425, -2.5573, -37.7405, 11.2443
0.2452, -0.1269, 0.0298, -12.1069, -33.8092, 1.6031
0.1839, -0.0917, 0.0356, -17.0153, -27.9237, -7.1145
0.1243, -0.0873, 0.0684, -14.3359, -30.7634, -5.1374
0.0975, -0.0871, 0.0537, -13.0611, -29.1069, 3.1145
0.1307, -0.0886, 0.0862, -13.1298, -32.0153, 5.8015
0.1238, -0.1059, 0.1077, -8.7710, -39.7786, 11.4275
0.1531, -0.1017, 0.1064, -2.8092, -46.9313, 15.4122
0.1829, -0.0847, 0.0464, -0.3359, -52.8702, 21.6489
0.2164, -0.1125, -0.0088, -8.4122, -48.2824, 20.4275
0.2447, -0.0934, -0.0359, -17.2137, -38.9466, 13.1832
0.2283, -0.0556, -0.0229, -18.3664, -32.7557, 6.7634
0.1512, -0.0392, 0.0432, -14.4885, -24.9160, 15.3206
0.1243, -0.0595, 0.1067, -4.7176, -28.2137, 15.8015
0.1021, -0.0849, 0.1299, 2.7176, -35.4351, 13.4427
0.0921, -0.0976, 0.1296, 9.9924, -39.0229, 11.3206
0.1121, -0.0641, 0.0386, 18.5649, -41.7099, 21.3511
0.1353, -0.0556, -0.0229, 11.8550, -35.4351, 28.1069
0.1068, -0.0461, -0.0398, 7.5344, -19.3664, 32.4198
0.1104, -0.0690, 0.0017, -7.5191, -9.6794, 40.6260
0.0684, -0.1059, 0.0625, -28.3740, 0.3817, 35.8321
0.0150, -0.1166, 0.0750, -48.6718, 2.5573, 23.2824
-0.0046, -0.1242, 0.0981, -39.9389, -0.7328, 17.4275
0.0152, -0.1066, 0.0491, -9.8397, -17.9771, 6.1298
0.0526, -0.1105, -0.0139, 15.6107, -28.4733, 0.3053
0.0963, -0.0756, -0.0605, 15.5496, -26.4886, 6.3282
0.1075, -0.0663, -0.0237, 7.0305, -17.6870, 12.7786
0.0926, -0.0942, 0.0227, -9.7328, -9.3740, 11.3359
0.0369, -0.1279, 0.0542, -36.1679, -2.1221, 7.8321
-0.0131, -0.2206, 0.0244, -65.0000, 2.0229, 7.5649
-0.0285, -0.2419, 0.0225, -80.9313, 3.3664, 13.3206
-0.0204, -0.2136, 0.0161, -77.5802, -1.5420, 10.1603
0.0230, -0.1596, -0.0154, -61.7939, -8.2061, 7.5420
0.0838, -0.1193, -0.0500, -44.0840, -17.8931, 7.9847
0.1038, -0.1313, -0.0425, -33.1527, -19.7481, 7.3206
0.1116, -0.1474, -0.0156, -32.8473, -18.8626, 9.4580
0.1119, -0.0883, 0.0110, -27.2443, -12.4351, 11.1832
0.0616, -0.1767, -0.0161, -26.3053, -12.3511, 22.1908
0.0281, -0.1996, -0.0046, -32.0611, -9.9084, 16.5267
0.0128, -0.2360, -0.0339, -46.6489, -5.4656, 11.6489
0.0316, -0.1950, 0.0056, -51.5115, -6.7634, 11.6565
0.0430, -0.1579, 0.0288, -34.5802, -20.0000, 26.7939
0.0443, -0.1926, 0.0537, -28.9160, -25.1374, 19.7634
0.0711, -0.1967, 0.0042, -39.4733, -16.0153, 17.5649
0.1014, -0.1362, -0.0081, -33.4656, -14.9084, 13.0916
0.0958, -0.1567, -0.0125, -27.1527, -16.4580, 11.8092
0.0806, -0.1801, 0.0054, -27.4504, -14.2901, 13.5420
0.0828, -0.2065, -0.0083, -29.0840, -13.1832, 16.8244
0.0887, -0.2038, -0.0330, -30.0840, -12.0992, 20.3740
0.1058, -0.1938, -0.0376, -33.5115, -12.2977, 26.8779
0.1031, -0.1999, -0.0127, -37.5496, -11.2672, 24.7176
0.1065, -0.1835, 0.0088, -36.0611, -9.3893, 14.1298
0.1143, -0.1513, 0.0244, -21.1069, -12.4656, 16.1985
0.0897, -0.1999, 0.0325, -6.9084, -15.8244, 16.4427
0.0760, -0.2250, 0.0010, -3.9389, -10.3053, 13.7710
0.0709, -0.2495, -0.0010, -3.0992, -4.3969, 12.0916
0.0679, -0.2656, -0.0061, -8.5725, -1.5496, 2.8473
0.0775, -0.2436, -0.0107, -10.5954, 0.3817, 0.7786
0.0931, -0.2331, -0.0352, -1.4427, -3.4198, 3.3359
0.0931, -0.2551, -0.0522, 7.8244, -9.2977, 9.4351
0.0870, -0.2849, -0.0835, 8.8855, -8.1908, 14.9313
0.0860, -0.2844, -0.0723, 4.3130, -4.5496, 13.2672
0.0899, -0.2597, -0.0525, 5.4504, -3.8168, 13.2061
0.0928, -0.2580, -0.0225, 10.8702, -7.2137, 14.4046
0.0938, -0.2492, -0.0195, 14.0992, -10.0153, 15.2443
0.0943, -0.2473, 0.0032, 15.9313, -10.2595, 14.8779
0.0901, -0.2719, -0.0129, 14.2290, -10.0916, 11.6031
0.0899, -0.2687, -0.0054, 13.1756, -9.0000, 9.9847
0.1080, -0.2468, 0.0027, 13.3893, -7.1298, 8.2672
0.1104, -0.2504, 0.0120, 12.8702, -5.5649, 6.1832
0.1092, -0.2382, 0.0291, 9.5496, -5.7405, 3.9542
0.1234, -0.2194, 0.0427, 10.9313, -5.6031, 5.7328
0.1182, -0.2263, 0.0376, 8.3206, -2.5802, 5.9389
0.0882, -0.2451, 0.0469, 4.3359, -0.6565, 3.3588
0.0794, -0.2336, 0.0588, 5.0611, -2.3206, 1.1756
0.0618, -0.2265, 0.0730, 8.8473, -5.1069, 1.8397
0.0486, -0.2485, 0.0403, 9.6183, -5.8015, 2.9237
0.0267, -0.2368, 0.0303, 6.9847, -3.9313, 2.6183
0.0215, -0.2304, 0.0305, 6.3817, -5.8168, 2.7634
0.0049, -0.2348, 0.0254, 2.8473, -6.2366, -2.9237
-0.0148, -0.2512, 0.0110, 2.2061, -5.6565, -5.6947
-0.0112, -0.2341, 0.0264, 2.7405, -5.7863, -6.8092
0.0037, -0.2236, 0.0276, 5.4046, -8.2824, -4.1832
0.0189, -0.1679, 0.0381, 18.6718, -16.7252, 3.0458
0.0359, -0.1511, 0.0220, 36.3740, -25.3664, 8.2595
0.0333, -0.1784, -0.0046, 38.8092, -25.2214, 7.2824
0.0377, -0.1928, -0.0149, 33.3740, -19.5725, 0.9695
0.0447, -0.1984, 0.0186, 30.5496, -14.0916, -9.2366
0.0540, -0.1647, 0.0447, 30.7252, -10.6947, -16.7176
0.0789, -0.1320, 0.0667, 34.8397, -10.6565, -17.7328
0.0901, -0.1183, 0.0725, 39.4122, -14.5802, -10.6412
0.0921, -0.1330, 0.0344, 30.8855, -11.8244, -4.5878
0.0967, -0.1406, 0.0273, 17.2137, -9.2443, -9.6718
0.1199, -0.1191, 0.0076, 16.3359, -5.2824, -10.2137
0.1478, -0.1254, -0.0129, 17.0305, -0.9924, -13.7939
0.1739, -0.1335, -0.0298, 10.8397, 6.9924, -17.6412
0.2090, -0.1269, -0.0242, 4.8702, 11.3817, -23.3969
0.2335, -0.1074, -0.0078, 5.3588, 10.3740, -26.1908
0.2239, -0.1008, 0.0071, 6.4580, 12.2672, -22.3053
0.2144, -0.1220, 0.0110, 1.2748, 10.5725, -18.7634
0.2159, -0.1369, 0.0249, -4.9771, 12.7939, -24.5267
0.2071, -0.1130, 0.0374, -2.4656, 12.2519, -28.8702
0.2178, -0.1035, 0.0635, 12.4427, 6.9237, -27.4886
0.2007, -0.1633, 0.0723, 22.2137, 0.4580, -28.5649
0.2034, -0.1686, 0.0725, 22.0076, 0.1603, -27.0611
0.2396, -0.1679, 0.0396, 17.8931, 0.3435, -21.1832
0.2625, -0.1728, 0.0164, 7.3435, 7.7634, -25.2443
0.2537, -0.1757, 0.0039, -9.6107, 17.2901, -34.3588
0.2693, -0.1408, 0.0225, -16.5573, 25.8168, -42.2824
0.2733, -0.1247, 0.0425, -10.3511, 27.7634, -45.7786
0.2820, -0.1699, 0.0352, -0.0687, 27.9237, -46.8168
0.2440, -0.1599, 0.0242, -4.4504, 18.5573, -48.2214
0.2679, -0.1308, 0.0354, 11.7023, 11.8626, -46.2366
0.2833, -0.1484, 0.0059, 14.4122, 17.0992, -24.7481
0.2913, -0.1242, 0.0259, 20.2901, 18.7405, -19.4122
0.2798, -0.1650, 0.0261, 22.7176, 19.0611, -12.1069
0.2581, -0.2006, 0.0288, 17.7023, 21.7634, -15.7634
0.2283, -0.2560, 0.0063, 5.8321, 24.4351, -24.9466
0.2486, -0.2443, -0.0369, -6.0840, 31.7176, -35.2061
0.2720, -0.2199, -0.0400, -9.7710, 39.9389, -42.3282
0.2947, -0.1899, -0.0405, -8.8244, 42.0534, -46.1603
0.3135, -0.1491, -0.0105, -4.2290, 39.5496, -39.0687
0.3382, -0.1555, -0.0022, 1.5496, 31.8168, -33.2595
0.3358, -0.1808, -0.0225, 3.8397, 29.0229, -27.6031
0.3277, -0.2040, -0.0459, 5.4656, 28.0840, -26.3588
0.2803, -0.2228, -0.0647, 7.2824, 26.4122, -24.4275
0.2681, -0.2451, -0.0376, 5.6641, 26.9313, -28.4351
0.2586, -0.2299, 0.0017, 5.6947, 24.7863, -29.1221
0.2830, -0.1808, 0.0459, 14.4809, 14.8473, -27.7176
0.3106, -0.1796, 0.0483, 21.9847, 6.5191, -24.1527
0.3040, -0.1906, 0.0723, 20.5114, 6.6489, -21.6794
0.3065, -0.1799, 0.0674, 17.9466, 6.7939, -20.1832
0.2762, -0.1996, 0.0713, 16.0458, 8.2595, -18.1985
0.2632, -0.1989, 0.0732, 13.8702, 7.2214, -20.2366
0.2589, -0.2148, 0.0767, 9.5573, 6.6870, -21.2443
0.2601, -0.2133, 0.0664, 5.1908, 7.8092, -21.9466
0.2713, -0.2138, 0.0466, 3.5725, 4.8931, -21.9618
0.2723, -0.1935, 0.0444, 4.9924, 4.9695, -18.3511
0.2657, -0.1913, 0.0559, 5.3969, 5.9542, -15.2595
0.2794, -0.1835, 0.0737, 6.4122, 3.5115, -11.0534
0.2755, -0.1926, 0.0688, 6.7863, 1.1832, -4.2824
0.2706, -0.2014, 0.0481, 8.3969, -1.4733, 0.0153
0.2684, -0.1921, 0.0115, 10.0000, -2.3664, 6.6718
0.2610, -0.2182, 0.0034, 10.3435, -1.5649, 9.1756
0.2567, -0.2255, 0.0027, 2.9695, 3.3969, 3.0916
0.2481, -0.2116, 0.0103, 1.6412, 6.2595, 2.1679
0.2315, -0.2143, 0.0264, 3.0000, 5.1832, 3.3435
0.2320, -0.2062, 0.0503, 2.8855, 6.1908, 4.7863
0.2369, -0.2001, 0.0349, 4.3511, 5.3282, 6.8244
0.2613, -0.1916, 0.0342, 6.3511, 2.9008, 8.6641
0.2774, -0.1928, 0.0308, 6.7023, 1.3282, 9.2137
0.2752, -0.1970, 0.0352, 6.4122, 0.0229, 11.6107
0.2847, -0.1772, 0.0298, 7.3359, -2.0763, 15.7176
0.2725, -0.1782, 0.0190, 8.8779, -3.8244, 18.1298
0.2603, -0.1804, 0.0366, 9.4809, -3.6641, 19.8015
0.2361, -0.2023, 0.0479, 5.1527, -1.5878, 18.6870
0.2347, -0.1823, 0.0557, 5.1832, -1.7023, 17.7863
0.2342, -0.1826, 0.0754, 10.4275, -4.4962, 14.8550
0.2498, -0.1642, 0.0852, 9.5420, -6.2061, 17.7099
0.2906, -0.1511, 0.0791, 10.3893, -9.3053, 18.5878
0.3047, -0.1335, 0.0857, 15.0611, -16.7481, 25.3359
0.3079, -0.1552, 0.0740, 13.1985, -22.5649, 32.0382
0.3211, -0.1730, 0.0273, 4.2595, -22.4504, 34.4046
0.3243, -0.1723, 0.0027, 4.2977, -22.7252, 34.1603
0.3045, -0.1808, 0.0015, 3.7328, -24.3359, 34.4809
0.3026, -0.2009, -0.0303, -0.8931, -21.7557, 32.7176
0.2886, -0.1721, -0.0154, -6.4427, -16.1069, 26.1450
0.2784, -0.1689, 0.0090, -5.4733, -15.2748, 24.0611
0.2513, -0.1664, 0.0427, -8.6641, -14.2137, 24.2214
0.2427, -0.1430, 0.0791, -11.2672, -14.4427, 25.0076
0.2379, -0.1430, 0.1084, -15.2366, -18.8779, 23.5191
0.2059, -0.1076, 0.0981, -13.5115, -23.4809, 26.1603
0.2486, -0.1074, 0.1028, -7.1069, -30.7023, 35.4046
0.2371, -0.1262, 0.0916, -3.8702, -34.5420, 41.4580
0.2525, -0.1423, 0.0591, -9.4198, -29.7939, 39.3053
0.2681, -0.1486, 0.0417, -13.2443, -25.8626, 34.0382
0.3016, -0.1218, 0.0034, -18.2672, -21.3740, 22.3740
0.3062, -0.0873, 0.0022, -12.4122, -21.4351, 16.3359
0.3358, -0.0490, 0.1069, 6.1756, -21.6947, -1.9695
0.2254, -0.0766, 0.0427, 12.4733, -12.3664, 11.2977
0.1988, -0.0917, 0.0715, 12.7939, -5.1908, 19.5038
0.1680, -0.1039, 0.0884, 3.6336, -2.1679, 24.3206
0.1470, -0.1381, 0.0586, -11.0687, 0.3206, 29.4122
0.1863, -0.1315, -0.0134, -30.9389, 5.6489, 25.7863
0.2444, -0.0737, -0.0222, -31.8779, 8.8244, 22.3588
0.2225, -0.1118, -0.0229, -26.8931, 12.3130, 20.6947
0.1756, -0.1601, -0.0132, -28.8397, 17.1908, 13.7863
0.1414, -0.1891, 0.0205, -27.8168, 16.5725, 9.8931
0.1258, -0.1467, 0.0027, -19.2366, 8.6489, 13.3817
0.1253, -0.1413, -0.0132, -7.4504, 0.5191, 17.0305
0.1639, -0.1401, -0.0837, -9.3817, -2.0229, 25.8015
0.1971, -0.1398, -0.0850, -24.6107, 7.1221, 25.1527
0.1822, -0.1418, -0.0850, -36.4427, 17.2824, 17.5802
0.1575, -0.1249, -0.0173, -40.5802, 20.1832, 10.8244
0.1036, -0.1432, 0.0215, -37.5725, 15.7328, 10.7252
0.0684, -0.1528, 0.0288, -30.8779, 8.2366, 12.5878
0.0709, -0.1328, 0.0398, -25.4046, 4.9542, 12.2061
0.0977, -0.1237, 0.0334, -23.5725, 7.0534, 12.8473
0.1378, -0.0876, 0.0303, -15.0840, 4.8092, 18.5954
0.1404, -0.1037, 0.0198, -15.4580, 1.9160, 22.0687
0.1175, -0.1279, 0.0229, -15.8931, 1.1832, 23.5496
0.0801, -0.1481, 0.0105, -12.2519, -4.0916, 19.8855
0.0584, -0.1542, -0.0039, -6.5649, -9.1603, 19.1985
0.0501, -0.1594, -0.0090, -5.2672, -10.7710, 19.8321
0.0499, -0.1579, -0.0269, -6.1985, -8.5420, 18.4046
0.0650, -0.1428, -0.0232, -9.2061, -4.7405, 14.4809
0.0748, -0.1491, -0.0098, -12.4962, -4.8855, 10.7252
0.0958, -0.1164, -0.0024, -11.2977, -7.2595, 13.9695
0.0916, -0.1076, 0.0312, -7.2290, -11.0458, 18.6183
0.0945, -0.1081, 0.0352, -2.3282, -16.6641, 20.7786
0.0941, -0.1032, 0.0222, 5.2748, -19.1069, 26.5114
0.0779, -0.1354, 0.0327, 9.9542, -17.8092, 27.9389
0.0508, -0.1542, 0.0410, 8.3817, -13.8473, 29.2672
0.0396, -0.1569, 0.0225, 5.4809, -7.4351, 28.7405
0.0496, -0.1462, 0.0254, 5.2748, -5.5878, 25.6947
0.0572, -0.1354, 0.0471, 7.3893, -4.9695, 26.4886
0.0738, -0.1154, 0.0681, 11.0840, -8.1908, 27.3969
0.0648, -0.1274, 0.0625, 12.9389, -10.2824, 24.2748
0.0401, -0.1516, 0.0383, 9.0611, -7.5649, 15.4046
0.0443, -0.1432, 0.0283, 3.3817, -1.8473, 7.2443
0.0482, -0.1384, 0.0408, 0.3282, 1.9084, 3.1985
0.0613, -0.1345, 0.0132, 3.0992, -1.2214, 1.9008
0.0530, -0.1337, 0.0083, -0.4809, -6.2137, -1.9160
0.0679, -0.1411, -0.0183, 3.5267, -1.3130, 7.1298
0.0848, -0.1545, 0.0112, -2.3893, -0.7176, 1.7557
0.0684, -0.1196, 0.0405, 5.5344, -8.3588, 2.3282
0.0276, -0.1701, 0.0452, 6.5420, -6.6718, 3.9237
0.0257, -0.1506, 0.0437, 4.4275, -3.7405, -0.0840
0.0333, -0.1655, 0.0386, 7.0305, -5.9695, -3.8626
0.0591, -0.1345, 0.0322, 7.2137, -8.7328, -3.4885
0.0777, -0.1110, 0.0391, 12.9542, -12.8168, -0.7634
0.0831, -0.1279, 0.0564, 15.0305, -15.6412, 1.8092
0.0726, -0.1494, 0.0393, 11.7863, -14.9466, -0.1298
0.0784, -0.1310, 0.0388, 8.8855, -10.8321, -1.0687
0.0865, -0.1413, 0.0535, 9.2137, -9.8779, 1.0840
0.0960, -0.1330, 0.0474, 6.0458, -8.8244, 0.5573
0.0838, -0.1191, 0.0645, 5.0229, -7.3740, 1.9695
0.0892, -0.1149, 0.0679, 8.5267, -10.3969, 3.1450
0.0674, -0.1042, 0.0652, 7.0000, -10.3664, 0.7099
0.0438, -0.1015, 0.0532, 0.7863, -5.2519, -5.1756
0.0269, -0.0744, 0.0967, 2.4275, -5.5954, -6.8473
0.0147, -0.0825, 0.1038, 8.0229, -10.1450, -4.9008
-0.0197, -0.1154, 0.0730, 6.9389, -9.9924, -6.1756
-0.0016, -0.1057, 0.0491, 4.3969, -7.8626, -7.6031
0.0276, -0.0715, 0.0381, 6.8244, -7.9237, -6.4885
0.0394, -0.0510, 0.0535, 13.3893, -11.8931, -2.5191
0.0584, -0.0124, 0.0586, 23.9237, -17.5496, 6.7252
0.0765, 0.0081, 0.0667, 43.9771, -24.2595, 21.3740
0.0628, -0.0097, 0.0459, 58.0763, -29.6947, 34.7634
0.0391, -0.0383, 0.0413, 57.4504, -25.7176, 33.5115
0.0157, -0.0942, 0.0100, 41.9237, -13.8244, 20.8168
0.0565, -0.0895, 0.0017, 21.9237, 2.6336, 2.5420
0.1185, -0.0468, 0.0034, 15.6489, 12.3206, -9.7710
0.1849, -0.0163, 0.0005, 15.8168, 15.1221, -10.7557
0.2386, 0.0118, 0.0071, 13.0840, 19.0000, -9.6489
0.2886, 0.0609, 0.0281, 16.1985, 16.9924, -1.0992
0.3255, 0.1009, 0.0200, 29.7557, 6.1603, 17.7328
0.3265, 0.0701, 0.0244, 45.4122, 0.1832, 33.5344
0.3128, 0.0255, 0.0134, 51.1603, -3.4351, 35.8931
0.2740, -0.0346, -0.0034, 43.5954, 1.0458, 25.6718
0.2274, -0.1030, -0.0337, 24.2290, 11.3969, 0.7405
0.2318, -0.0900, -0.0095, 5.2901, 19.0534, -27.0382
0.2254, -0.0678, 0.0640, -4.6107, 20.7252, -54.5573
0.2288, -0.0519, 0.0813, -10.8015, 22.7099, -54.7405
0.2303, -0.0500, 0.0459, -10.4122, 24.2824, -49.1756
0.2308, -0.0602, 0.0215, -13.4046, 24.9695, -51.2137
0.2220, -0.0810, 0.0557, -18.6947, 21.7099, -58.7710
0.1929, -0.1037, 0.1091, -21.7634, 13.7099, -61.2061
0.2056, -0.0964, 0.1116, -15.9160, 3.2290, -55.7939
0.2120, -0.1022, 0.0840, -6.7099, -5.0611, -48.1908
0.2193, -0.1096, 0.0349, -5.8473, -1.8168, -46.8092
0.2366, -0.0969, 0.0090, -10.0153, 9.9160, -51.0229
0.2684, -0.0888, -0.0051, -20.1756, 12.5649, -55.2519
0.2515, -0.0370, 0.0818, -16.3206, 17.0992, -56.4733
0.2103, -0.0632, 0.0813, -13.2748, 16.9466, -49.3588
0.2169, -0.0839, 0.0652, -14.2290, 17.5267, -49.8244
0.2042, -0.0856, 0.0247, -6.3435, 13.5191, -44.3817
0.1985, -0.1205, -0.0071, -4.0611, 14.4427, -47.1908
0.2093, -0.1108, -0.0129, -1.1069, 16.8702, -43.2595
0.2293, -0.0991, -0.0337, 1.9771, 20.5191, -42.3435
0.2650, -0.1030, -0.0208, 5.4198, 22.4504, -34.8168
0.2852, -0.0944, -0.0447, 1.9160, 24.0916, -35.0382
0.3030, -0.0825, -0.0181, 3.2748, 25.4351, -32.3893
0.2713, -0.0993, 0.0010, 6.1221, 22.0687, -29.6031
0.2369, -0.1462, 0.0049, 4.0458, 21.3740, -28.0687
0.2252, -0.1506, -0.0100, -0.9466, 23.4733, -31.8168
0.2332, -0.1586, -0.0146, 0.4427, 24.9160, -35.4351
0.2256, -0.1613, -0.0142, -1.4733, 28.5649, -39.2901
0.2447, -0.1393, -0.0032, 2.3969, 28.0305, -36.4580
0.2610, -0.1352, 0.0059, 6.6183, 27.6870, -29.5725
0.2606, -0.1164, 0.0186, 12.4580, 22.9313, -22.5954
0.2405, -0.1533, 0.0398, 15.0229, 16.6260, -18.1603
0.2134, -0.1613, 0.0278, 11.0305, 14.9542, -15.5038
0.2176, -0.1916, 0.0579, 6.2366, 14.3435, -19.0076
0.2286, -0.1877, 0.0625, 3.1450, 13.8855, -15.1985
0.2430, -0.1923, 0.0342, -1.3206, 14.6641, -18.1985
0.2581, -0.1716, 0.0068, -1.8626, 16.1069, -15.6031
0.2747, -0.1740, -0.0046, -1.7481, 19.2366, -15.3969
0.2608, -0.1799, 0.0195, -3.8168, 22.3359, -16.9847
0.2686, -0.1813, 0.0513, -1.8473, 19.9389, -11.3435
0.2769, -0.1967, 0.0439, -1.9542, 16.5573, -3.6565
0.2901, -0.1877, 0.0376, 2.6107, 11.4809, 3.8473
0.2945, -0.2221, 0.0054, 3.9695, 9.9695, 8.4885
0.2764, -0.2348, 0.0449, 0.2748, 11.2977, 5.5115
0.2867, -0.2209, 0.0527, 0.3206, 7.3053, 7.6336
0.2798, -0.2263, 0.0520, -0.7557, 4.9847, 11.0534
0.2921, -0.2184, 0.0613, -0.9924, 0.4885, 12.7252
0.2986, -0.2016, 0.0645, 0.9313, -5.9924, 17.2901
0.3218, -0.1821, 0.0378, 3.7405, -11.2977, 21.1603
0.3243, -0.1706, 0.0088, 6.0916, -13.2672, 27.3969
0.2991, -0.1528, 0.0024, 7.9771, -11.9389, 29.6947
0.2383, -0.1528, 0.0330, 11.2824, -12.6947, 32.9542
0.1790, -0.1508, 0.0847, 13.4427, -16.0305, 35.0611
0.1456, -0.1733, 0.1125, 10.8626, -17.8092, 33.9695
0.1304, -0.1786, 0.1287, 5.3282, -19.1450, 30.7710
0.1365, -0.1794, 0.1313, -1.1527, -21.7557, 30.2214
0.1693, -0.1718, 0.1252, -5.9542, -24.7557, 27.2290
0.2200, -0.1308, 0.1057, -3.4656, -29.7252, 30.8931
0.2452, -0.1472, 0.0798, 4.1832, -30.8321, 20.7252
0.2720, -0.1518, 0.0593, 0.3130, -31.9618, 33.1450
0.3030, -0.1528, 0.0474, -2.9389, -32.1985, 32.1985
0.3160, -0.1452, 0.0393, -3.6412, -35.1374, 29.8855
0.3370, -0.1205, 0.0413, -0.5573, -37.5038, 32.8397
0.3458, -0.1137, 0.0410, 0.6947, -40.3893, 33.7405
0.3560, -0.0974, 0.0317, 0.5878, -43.8931, 40.5954
0.3704, -0.0971, 0.0449, -1.5954, -52.1069, 38.8168
0.3409, -0.1157, 0.0425, -15.3053, -51.0687, 23.8168
0.3289, -0.0849, 0.0391, -15.4275, -47.4580, 20.5267
0.2620, -0.0688, 0.0620, -17.2977, -36.9771, 15.5496
0.2098, -0.0290, 0.1575, -9.0763, -22.3817, 19.8015
0.1214, -0.1037, 0.1721, -11.9771, -7.0534, 9.8550
0.0894, -0.0993, 0.2407, -20.5649, 1.1298, 14.3130
0.0933, -0.1091, 0.2561, -21.8397, -4.8931, 21.1908
0.1187, -0.1281, 0.2014, -20.5725, -16.6718, 31.9084
0.1653, -0.1430, 0.1208, -15.5725, -32.7023, 33.8092
0.2208, -0.1747, -0.0254, -8.9466, -50.0534, 36.7099
0.2830, -0.1513, -0.1990, 3.4427, -52.4809, 38.4809
0.3091, -0.1779, -0.2161, 8.5725, -39.3817, 32.3664
0.2842, -0.1574, -0.1704, 3.6031, -20.0840, 28.0840
0.2352, -0.1435, -0.0515, -1.2672, -2.6947, 22.2977
0.1873, -0.1213, 0.0662, -7.0992, 2.7634, 19.1985
0.2095, -0.0729, 0.0696, -8.9771, 0.8015, 22.2214
0.2332, -0.0532, 0.0391, -10.6641, -3.4809, 25.3588
0.2718, -0.0651, -0.0129, -16.0534, 0.9084, 24.5573
0.2598, -0.0991, -0.0642, -17.0840, 7.4122, 17.6107
0.2252, -0.1262, -0.0608, -13.9313, 14.7023, 5.4275
0.2095, -0.0900, -0.0417, -11.1527, 19.2748, -1.6489
0.2003, -0.0563, 0.0044, -9.6565, 14.6947, 0.0382
0.2120, -0.0068, 0.0601, -10.4504, 10.3664, 5.9084
0.2479, 0.0186, 0.0723, -11.1756, 5.9542, 14.3053
0.2740, 0.0220, 0.0613, -10.7252, 5.6260, 19.6107
0.2586, -0.0063, 0.0408, -17.6718, 11.8321, 24.5954
0.2205, -0.0676, 0.0354, -28.3282, 16.7328, 16.2519
0.1590, -0.1166, 0.0054, -36.5267, 18.8702, 8.1450
0.1234, -0.1093, -0.0063, -35.9008, 19.8092, 4.6031
0.1019, -0.1203, -0.0396, -31.9466, 19.1679, -4.4809
0.1016, -0.0851, -0.0295, -18.3206, 12.8779, -0.7710
0.1080, -0.0834, -0.0156, -5.2748, 2.7405, 6.0992
0.1126, -0.0683, 0.0105, 2.0076, -7.2290, 6.6565
0.1441, -0.0197, 0.0254, 7.4427, -14.2137, 12.2366
0.1729, -0.0124, 0.0295, 13.1221, -18.0229, 20.2443
0.1627, -0.0556, -0.0020, 9.8626, -15.5954, 20.4656
0.1439, -0.0724, -0.0112, -1.5802, -5.4809, 15.1298
0.0814, -0.1142, -0.0012, -8.0000, 3.5954, 9.9924
0.0162, -0.1286, 0.0293, -15.1832, 7.8168, -0.3435
0.0015, -0.1325, 0.0278, -14.7939, 4.6412, -6.1450
0.0352, -0.1166, 0.0044, -9.0153, -0.9618, -7.0763
0.1058, -0.0876, -0.0063, -5.0611, -3.6489, -5.7252
0.1522, -0.0556, -0.0320, 1.8779, -6.3893, -0.5115
0.1690, -0.0449, -0.0247, 8.6947, -10.0153, 6.0840
0.1526, -0.0383, 0.0210, 15.9084, -11.9771, 16.0611
0.1207, -0.0695, 0.0203, 18.9618, -11.5878, 20.8244
0.0845, -0.0891, 0.0273, 18.3130, -7.8015, 19.3511
0.0660, -0.1093, 0.0354, 11.9618, -3.1832, 10.0611
0.0770, -0.0988, 0.0605, 5.1679, 1.1756, 0.4122
0.0967, -0.0629, 0.0664, 3.2366, 2.5496, -2.0534
0.1187, -0.0651, 0.0879, 4.2366, 1.8473, 2.5420
0.1273, -0.0629, 0.0823, 4.6947, 0.5649, 7.2290
0.1295, -0.0524, 0.0791, 9.7405, -2.9313, 12.5420
0.1026, -0.0678, 0.0725, 9.8779, -3.8931, 13.3664
0.0809, -0.0729, 0.0920, 8.0840, -3.6107, 11.9618
0.0626, -0.0947, 0.0842, 6.4656, -4.5954, 10.7176
0.0245, -0.1257, 0.0649, 1.4122, -2.0000, 4.0992
0.0106, -0.1318, 0.0671, -2.9160, 0.8168, -2.4427
0.0435, -0.1171, 0.0730, -2.9924, -0.1756, -4.7252
0.0533, -0.1037, 0.0842, -3.1298, -0.9695, -4.7863
0.0540, -0.0871, 0.0757, -1.0153, -1.2061, -1.9466
0.0577, -0.0800, 0.0708, 1.8321, -2.6183, 1.9924
0.0450, -0.0891, 0.0796, 4.0382, -4.0153, 5.2061
0.0301, -0.0864, 0.0940, 5.1832, -5.4427, 8.1527
0.0089, -0.1025, 0.0857, 2.3817, -4.6107, 4.9084
-0.0104, -0.1088, 0.0962, -1.6489, -1.7863, -2.6718
-0.0060, -0.0837, 0.0923, -3.1450, -0.2672, -6.5496
-0.0014, -0.0407, 0.0894, -1.9618, -0.5573, -6.4122
0.0186, -0.0324, 0.0808, 0.5649, -1.2824, -1.8550
0.0355, -0.0153, 0.0601, 5.4351, -3.8473, 3.5344
0.0609, -0.0380, 0.0696, 14.7634, -4.2748, 13.8397
0.0423, -0.0727, 0.0308, 12.5573, -0.4351, 11.5573
0.0572, -0.0505, 0.0295, 7.8321, 2.9084, 2.8779
0.0755, -0.0121, 0.0405, 10.5496, 3.2214, 3.1908
0.0894, -0.0014, 0.0330, 16.4275, 0.5878, 7.3206
0.1109, -0.0173, 0.0269, 21.8244, 0.7481, 6.2214
0.1109, 0.0164, 0.0127, 30.4962, 3.2672, 9.0458
0.1238, -0.0063, 0.0010, 42.0840, 0.5115, 10.0611
0.1346, -0.0209, -0.0051, 45.9924, 1.7634, 16.4275
0.1126, -0.0524, 0.0474, 35.3511, 4.6489, 14.1221
0.0777, -0.0427, 0.0737, 18.4656, 1.2519, 7.5725
0.0872, -0.0285, 0.0688, 13.7405, -9.6336, 8.9084
0.1209, -0.0685, -0.0034, 13.6565, -18.1069, 8.4656
0.1627, -0.0952, -0.0386, 4.0763, -9.0763, -10.4885
0.2322, -0.0493, -0.0474, -2.7328, 3.6565, -27.2061
0.2933, 0.0064, -0.0308, 0.6336, 11.2137, -26.5191
0.3397, 0.0501, 0.0032, 8.0916, 8.4656, -16.4504
0.3619, 0.0689, 0.0085, 23.5725, 1.4656, -3.5649
0.3511, 0.0572, 0.0200, 33.8168, -1.5649, 10.2366
0.3416, 0.0421, 0.0254, 41.0687, -1.3588, 15.7786
0.2955, -0.0268, 0.0276, 39.6641, 1.9618, 12.4962
0.2252, -0.0807, 0.0081, 25.0763, 14.3359, -6.6336
0.2051, -0.0646, 0.0132, 13.4656, 22.5878, -28.6641
0.1802, -0.0644, 0.0371, 11.8168, 21.5038, -39.4733
0.1976, -0.0353, 0.0464, 10.0229, 14.9618, -38.5954
0.2535, 0.0086, 0.0566, 11.9084, 6.0458, -36.3817
0.2288, -0.0060, 0.0574, 15.2137, 4.1603, -31.3817
0.2227, -0.0244, 0.0667, 14.0000, 7.5954, -32.4351
0.1854, -0.0317, 0.0327, 14.9695, 3.9466, -39.9389
0.2178, -0.0515, 0.0549, 12.2824, 7.0458, -40.0153
0.2034, -0.0085, 0.0828, 17.0076, 4.2290, -42.0611
0.1964, -0.0192, 0.0479, 16.3817, 10.7557, -33.2824
0.2318, -0.0148, 0.0596, 14.3282, 16.8855, -34.1832
0.2447, -0.0034, 0.0322, 16.9847, 17.8321, -30.2137
0.2496, -0.0109, 0.0415, 14.4122, 25.3359, -33.1679
0.2413, -0.0158, 0.0283, 11.1450, 29.0840, -35.4351
0.2313, -0.0483, 0.0383, 3.3664, 34.2137, -42.3130
0.2339, -0.0400, 0.0066, -1.2748, 36.3053, -45.0763
0.2479, -0.0593, 0.0002, 2.6107, 32.8015, -46.6183
0.2574, -0.0449, -0.0237, 1.3435, 32.5573, -48.2672
0.2508, -0.0397, 0.0066, 5.4885, 31.5802, -49.5496
0.2347, -0.0466, 0.0293, 4.6183, 27.5267, -46.1069
0.2532, -0.0483, 0.0190, 4.8626, 24.9924, -39.7939
0.2510, -0.0615, 0.0154, 5.5496, 21.5496, -37.7557
0.2567, -0.0742, -0.0195, 4.7710, 19.3511, -35.4656
0.2618, -0.0759, -0.0193, 4.8321, 21.7481, -36.0305
0.2484, -0.0607, -0.0322, 9.7939, 19.0458, -31.9389
0.2342, -0.0541, 0.0012, 16.9008, 14.5878, -28.9847
0.2359, -0.0458, 0.0374, 19.4122, 9.4351, -30.8473
0.2459, -0.0236, 0.0632, 17.6870, 7.4733, -29.1450
0.2557, -0.0146, 0.0815, 17.8321, 4.2748, -23.0382
0.2486, -0.0182, 0.0896, 15.0763, 3.2977, -21.6870
0.2501, -0.0058, 0.0908, 11.9084, 7.9542, -20.6336
0.2418, -0.0038, 0.0859, 12.1832, 6.7252, -21.7786
0.2108, -0.0209, 0.0823, 10.3206, 9.8015, -23.0992
0.2022, -0.0214, 0.0950, 11.4351, 6.9695, -21.9084
0.1863, -0.0336, 0.0938, 6.3969, 8.5649, -25.3435
0.1729, -0.0214, 0.0989, 2.5344, 7.9084, -28.0458
0.1673, -0.0266, 0.0967, 0.7786, 5.8168, -26.8931
0.1639, -0.0378, 0.0859, -0.2366, 6.4809, -22.6718
0.1727, -0.0546, 0.0732, -1.2443, 5.6794, -18.0229
0.1998, -0.0580, 0.0562, -3.3588, 3.4351, -16.5725
0.2110, -0.0759, 0.0330, -1.3664, 3.3893, -10.1145
0.2254, -0.0856, -0.0032, -0.9084, 1.4427, -7.4809
0.2525, -0.0817, -0.0195, 0.6336, 1.7557, -3.8931
0.2476, -0.0817, -0.0186, -0.9008, 4.8779, -4.5954
0.2396, -0.0524, 0.0066, 1.2901, 7.6565, -0.9008
0.2154, -0.0490, 0.0371, 2.2595, 5.3664, 3.9160
0.2049, -0.0383, 0.0427, 3.0687, 2.0382, 8.8092
0.1905, -0.0368, 0.0347, 4.9389, -2.5496, 11.6489
0.1719, -0.0422, 0.0254, 4.8931, -3.3435, 14.3740
0.1590, -0.0490, 0.0083, 3.9924, -2.2748, 12.4962
0.1419, -0.0505, 0.0225, 3.4275, -2.5267, 11.6031
0.1451, -0.0456, 0.0479, 2.4962, -3.0458, 9.5878
0.1607, -0.0278, 0.0562, 3.2443, -4.7328, 11.9237
0.1861, -0.0341, 0.0767, 2.1679, -7.2595, 13.8931
0.2315, -0.0351, 0.0654, 1.4122, -10.8550, 18.8473
0.2676, -0.0422, 0.0576, 1.3893, -14.2366, 22.3969
0.2921, -0.0495, 0.0320, 1.3130, -15.8855, 24.1298
0.3072, -0.0463, 0.0244, 1.2443, -14.9008, 25.1298
0.3121, -0.0361, 0.0437, 1.2214, -13.4580, 26.3282
0.3111, -0.0146, 0.0625, 0.3511, -15.5725, 25.0305
0.2894, -0.0453, 0.1021, -1.1756, -16.7634, 25.3435
0.2664, -0.0146, 0.1062, -3.1069, -16.1069, 22.1145
0.2518, 0.0145, 0.1057, 1.4198, -22.2672, 23.7634
0.2305, -0.0629, 0.1252, 0.9160, -23.5878, 24.4046
0.2327, -0.0327, 0.1208, -2.2901, -26.4886, 23.3817
0.2154, -0.0192, 0.0669, -2.3588, -28.9084, 25.1298
0.2542, -0.0119, 0.0024, -5.7023, -28.7405, 18.0992
0.2557, -0.0090, -0.0129, -10.1985, -21.2595, 19.9084
0.2120, 0.0150, 0.0171, -16.9771, -6.6794, 13.3435
0.1517, 0.0059, 0.1096, -21.7176, -2.4046, 9.8550
0.1214, 0.0108, 0.1655, -21.7405, -4.0916, 17.5802
0.1021, -0.0380, 0.2170, -27.0611, -12.9160, 27.4046
0.1480, -0.0634, 0.1929, -33.9466, -19.3435, 33.5649
0.2789, -0.0222, 0.0811, -20.7176, -37.6031, 28.1527
0.3150, -0.0458, -0.0581, -6.0916, -49.8550, 18.8473
0.3553, -0.0170, -0.1284, -2.3817, -37.8473, 22.4733
0.3773, 0.0308, -0.1228, -2.8855, -25.1069, 28.9008
0.3118, 0.0345, 0.0103, -8.6031, -11.6107, 32.1069
0.2291, -0.0112, 0.1365, -23.2977, -7.6794, 30.8168
0.1309, -0.0536, 0.2192, -40.0000, -13.2061, 27.9084
0.1068, -0.1069, 0.1824, -51.4275, -17.2137, 21.5573
0.1890, -0.0475, 0.0779, -37.9160, -31.5191, 7.5344
0.2586, -0.0051, -0.0708, -6.9389, -36.1603, 9.1374
0.3077, 0.0081, -0.0923, 10.4809, -26.0534, 13.3511
0.2977, 0.0284, -0.0334, 17.0840, -18.6870, 17.2443
0.2586, 0.0213, 0.0532, 16.4504, -16.2748, 24.9695
0.1824, -0.0034, 0.1152, -0.1450, -13.6947, 35.5115
0.1583, -0.0368, 0.1306, -16.1832, -8.5115, 44.0611
0.1414, -0.0942, 0.0625, -36.3588, -0.5496, 40.3969
0.2103, -0.0707, -0.0671, -57.0458, 10.4275, 24.7328
0.2686, -0.0349, -0.0820, -72.4962, 26.8473, 3.7863
0.3013, 0.0362, -0.0156, -62.3206, 27.2519, 5.9695
0.2505, 0.0338, 0.0532, -37.3053, 12.4733, 23.4580
0.1788, -0.0065, 0.0571, -24.5802, 5.6718, 27.6412
0.1431, -0.0202, 0.1003, -15.8855, 2.4122, 32.0458
0.1329, -0.0424, 0.0928, -13.8931, 0.5573, 30.4351
0.1526, -0.0593, 0.0598, -10.3053, 4.6641, 22.9466
0.1658, -0.0493, 0.0229, -11.6641, 8.5649, 21.5573
0.1614, -0.0588, 0.0190, -17.1374, 14.0000, 22.0763
0.1573, -0.0483, 0.0029, -18.8779, 17.2595, 24.1603
0.1141, -0.0671, 0.0068, -18.8397, 16.7786, 22.0076
0.0809, -0.0812, 0.0154, -25.1908, 14.6565, 18.7405
0.0921, -0.0617, 0.0166, -23.6183, 8.9237, 22.2366
0.1114, -0.0419, 0.0315, -17.6870, 0.5496, 27.0992
0.1194, -0.0522, -0.0034, -16.5114, 0.0153, 28.7099
0.1246, -0.0817, -0.0352, -18.7252, 3.0534, 25.1145
0.1163, -0.0952, -0.0681, -20.5725, 4.9695, 21.5114
0.1028, -0.1039, -0.1199, -26.3664, 7.5954, 15.2595
0.0914, -0.1091, -0.1204, -23.8931, 9.2977, 8.3740
0.0789, -0.0815, -0.0771, -15.4351, 6.3435, 7.4580
0.1016, -0.0363, -0.0608, -3.4122, -2.1221, 12.9237
0.1314, -0.0056, -0.0327, 6.8015, -9.3511, 24.1908
0.1524, -0.0034, 0.0015, 12.2748, -11.5878, 31.0458
0.1307, -0.0434, -0.0156, 10.2977, -7.6412, 25.7405
0.0513, -0.0761, 0.0222, 3.1145, -2.3664, 17.5496
0.0101, -0.0825, 0.0454, 0.0229, -0.4733, 12.5802
0.0035, -0.0695, 0.0427, 1.0840, -1.7557, 6.7786
0.0203, -0.0556, 0.0457, 1.4580, -4.7023, 5.1145
0.0748, -0.0312, 0.0488, 4.8702, -7.5649, 10.3053
0.1028, -0.0366, 0.0376, 9.2137, -10.0763, 16.6565
0.1021, -0.0497, 0.0188, 8.2443, -6.8168, 17.4580
0.0718, -0.1066, 0.0044, -1.2061, 1.3282, 6.6412
0.0501, -0.0737, 0.0464, -4.6794, 4.5802, -0.7328
0.0230, -0.0817, 0.0781, -7.6260, 2.6870, -8.0992
0.0359, -0.0759, 0.0781, -1.0840, 0.4580, -2.5649
0.0421, -0.0771, 0.0703, 1.6718, -2.1450, -1.1832
0.0911, -0.0471, 0.0400, 4.3359, -4.3969, 1.3130
0.1048, -0.0410, 0.0703, 9.0000, -6.0763, 10.9084
0.0816, -0.0754, 0.0654, 9.6870, -7.1603, 15.4885
0.0203, -0.1127, 0.0793, 4.6031, -5.1832, 10.8550
-0.0004, -0.1313, 0.0762, -2.0763, -1.7023, 2.2137
0.0013, -0.1132, 0.0725, -4.3588, -1.1756, -2.3817
0.0213, -0.1037, 0.0603, -2.7099, -2.5496, -2.8397
0.0416, -0.1161, 0.0276, -1.8321, -3.9847, -2.4962
0.0665, -0.1059, 0.0215, -3.4351, -3.0305, -3.0687
0.0770, -0.0944, 0.0237, -3.4351, -4.3664, -2.7252
0.0574, -0.0976, 0.0112, -4.1298, -5.0076, -2.1756
0.0462, -0.1076, 0.0210, -2.9466, -4.9084, -1.9847
0.0357, -0.0903, 0.0364, -4.7252, -4.5344, -5.8244
0.0167, -0.0942, 0.0430, -5.7023, -5.2137, -5.8855
0.0189, -0.0832, 0.0359, -7.5573, -7.6260, -4.1756
0.0372, -0.0773, 0.0461, -7.5191, -8.4962, -3.1603
0.0333, -0.0693, 0.0261, -8.4580, -7.2595, -4.6870
0.0362, -0.0624, 0.0369, -8.7099, -6.2137, -4.2290
0.0164, -0.0475, 0.0496, -6.2290, -7.2595, -5.5115
0.0093, -0.0644, 0.0398, 0.7786, -12.3130, -5.4885
0.0245, -0.0912, 0.0146, 5.0763, -17.0305, -7.2748
0.0279, -0.1369, -0.0229, 3.3511, -14.3282, -8.6565
0.0342, -0.1027, -0.0300, 0.5115, -11.0534, -8.0611
0.0440, -0.0952, -0.0032, -6.2824, -6.1908, -8.9695
0.0613, -0.0427, -0.0068, -8.9695, -3.3359, -8.8092
0.0858, -0.0329, -0.0139, 0.1908, -6.9618, -8.2595
0.0870, -0.0517, -0.0098, 9.3817, -13.8931, -11.9695
0.0931, -0.0412, 0.0237, 19.9389, -20.2748, -10.6489
0.1077, -0.0087, 0.0085, 34.9466, -23.4198, -0.3130
0.0694, -0.1127, 0.0662, 32.6031, -24.6336, 0.9847
0.0325, -0.1435, 0.0444, 20.9160, -17.6870, -11.5802
0.0130, -0.1415, 0.0508, 10.4122, -7.3893, -14.1832
0.0626, -0.0861, 0.0847, 16.2214, -10.9389, -17.5573
0.1021, -0.0715, 0.0823, 18.2137, -12.1679, -22.1603
0.1514, -0.0129, 0.0786, 20.8779, -11.5496, -22.3588
0.1802, 0.0027, 0.0640, 27.9542, -13.5725, -15.3282
0.2115, -0.0366, 0.0679, 32.9237, -17.4275, -4.3588
0.2108, -0.0873, 0.0632, 23.8779, -10.4733, -4.2748
0.2032, -0.0944, 0.0479, 8.1756, 2.1069, -8.9389
0.2330, -0.0392, 0.0723, 3.6641, 6.7252, -16.0611
0.2300, -0.0524, 0.0923, 7.0458, 2.5038, -8.5496
0.2896, 0.0049, 0.0801, 5.1603, 4.7099, -2.5115
0.3113, -0.0182, 0.0671, 7.9847, 5.8015, -2.3206
0.3419, -0.0351, 0.0129, 4.0000, 11.2366, -10.8321
0.3770, -0.0222, -0.0042, 1.1756, 20.0763, -19.4886
0.3624, -0.0410, 0.0168, -3.2137, 30.9084, -24.2901
0.3533, -0.0222, 0.0234, -4.3969, 30.3130, -25.2901
0.3328, -0.0182, 0.0417, 3.3588, 28.9389, -19.1756
0.3282, -0.0375, 0.0500, 10.5802, 22.3511, -18.5802
0.3250, -0.0324, 0.0750, 20.5649, 16.3817, -14.9847
0.3404, 0.0057, 0.0437, 34.6718, 6.3206, 1.4962
0.3423, -0.0800, 0.0530, 41.0458, 0.0763, 11.4275
0.3113, -0.1154, 0.0764, 31.4962, 7.1985, 3.8092
0.2332, -0.1110, 0.0391, 15.4122, 10.8015, 4.0992
0.2349, -0.1181, 0.0586, 13.3435, 17.7176, -16.2748
0.2115, -0.1017, 0.0215, 14.0992, 17.1603, -20.9924
0.2274, -0.0871, 0.0129, 15.6794, 19.3969, -23.0840
0.2222, -0.0829, -0.0186, 9.4580, 26.6489, -22.8092
0.2989, -0.0522, -0.0120, 11.5878, 33.0992, -22.5420
0.3150, -0.0209, 0.0093, 17.4122, 33.3817, -15.3664
0.3060, -0.0302, 0.0225, 22.7481, 25.4886, -9.1603
0.2715, -0.0646, 0.0049, 16.9466, 24.9008, -20.1603
0.2127, -0.0681, -0.0146, 11.2061, 29.1374, -29.3435
0.1981, -0.0422, -0.0156, 14.0687, 28.3206, -28.6260
0.1841, -0.0558, -0.0178, 14.0534, 28.8244, -26.4962
0.1600, -0.0319, 0.0095, 13.3817, 28.1527, -26.3359
0.1859, -0.0024, 0.0051, 16.8473, 23.8473, -21.6718
0.2381, 0.0233, 0.0522, 18.6565, 18.0458, -15.5496
0.2757, -0.0002, 0.0322, 15.5267, 14.5725, -13.3740
0.2772, -0.0251, -0.0005, 7.0534, 10.4809, -16.1069
0.2828, -0.0424, -0.0789, -0.2748, 8.3206, -24.4427
0.2967, -0.0497, -0.1169, 1.1145, 12.0458, -26.9695
0.3028, -0.0453, -0.0823, 5.9313, 16.3969, -22.5344
0.3262, -0.0119, -0.0305, 13.7252, 17.2061, -24.4580
0.3277, 0.0003, 0.0261, 22.2290, 13.6336, -20.8779
0.3035, 0.0018, 0.0720, 23.6183, 12.5344, -18.2443
0.2698, -0.0134, 0.1235, 19.4656, 11.1527, -18.3740
0.2359, -0.0292, 0.1433, 16.6794, 5.0916, -17.5954
0.1788, -0.0534, 0.1177, 10.0229, 3.5344, -17.7328
0.1558, -0.0656, 0.1133, 5.8550, 5.2443, -20.9618
0.1282, -0.0576, 0.1333, 1.3359, 9.5878, -24.1374
0.1417, -0.0312, 0.1497, 2.1908, 8.9542, -22.4122
0.1619, -0.0390, 0.1350, 5.7786, 5.0458, -14.4809
0.1710, -0.0693, 0.1196, 4.7176, 4.8626, -12.4733
0.1990, -0.0607, 0.0938, 1.1832, 6.7634, -11.8779
0.2178, -0.0544, 0.0786, 0.2443, 7.0992, -13.1985
0.2339, -0.0493, 0.0686, -0.8473, 9.5191, -9.8702
0.2405, -0.0434, 0.0591, 1.3969, 8.1221, -5.3817
0.2095, -0.0539, 0.0613, 0.4198, 8.8321, -4.7786
0.2012, -0.0554, 0.0566, 0.4504, 8.1832, -4.2061
0.1834, -0.0700, 0.0579, -0.3969, 9.0611, -5.3588
0.1575, -0.0629, 0.0498, -1.6794, 10.4275, -7.5267
0.1524, -0.0527, 0.0503, -2.6183, 10.9695, -8.3817
0.1583, -0.0461, 0.0603, -3.1374, 7.7863, -6.7557
0.1546, -0.0248, 0.0686, -2.0534, 3.0000, 0.5191
0.1617, -0.0302, 0.0840, 0.2519, -2.8397, 7.2977
0.1370, -0.0654, 0.0623, -1.0992, -3.5802, 6.3053
0.1397, -0.0524, 0.0371, 0.4275, -4.9160, 6.6031
0.1617, -0.0544, 0.0188, 0.1527, -3.3130, 5.6107
0.1783, -0.0405, 0.0095, 1.1069, -1.0992, 1.5954
0.1866, -0.0151, 0.0356, 1.7405, -2.5649, 1.5878
0.1846, -0.0058, 0.0830, -1.7939, -4.8473, 1.7481
0.1834, -0.0280, 0.0879, -5.9466, -4.6947, 6.2137
0.1773, -0.0395, 0.0564, -5.9313, -9.3130, 11.5191
0.1846, -0.0641, 0.0234, -4.5878, -10.1450, 14.3893
0.2093, -0.0671, -0.0007, -6.0840, -5.1679, 8.1069
0.2281, -0.0576, 0.0269, -6.4504, -1.0763, 7.0763
0.2530, -0.0483, 0.0603, -4.4427, -6.1985, 8.7786
0.2742, -0.0563, 0.0771, -1.0687, -16.1221, 17.7557
0.2794, -0.0773, 0.0576, -0.7863, -26.2366, 22.2824
0.3238, -0.1264, 0.0154, -4.4733, -28.1069, 16.0840
0.3714, -0.0446, -0.0559, -5.1221, -24.9084, 8.0534
0.3350, -0.0795, -0.0635, -14.2595, -9.7710, -4.9466
0.3006, -0.0004, -0.0061, -14.1985, 3.3359, -2.3053
0.2161, -0.0148, 0.0891, -12.3740, 4.1298, -1.6412
0.1507, -0.0388, 0.1477, -15.0076, -2.0992, 2.5802
0.1597, -0.0241, 0.1562, -6.8855, -20.4656, 10.2824
0.1397, -0.0495, 0.0881, -3.5573, -27.8550, 19.6718
0.2571, -0.0915, -0.0042, -4.3893, -36.1069, 28.0382
0.3135, -0.0820, -0.0950, -8.7023, -28.5420, 28.1145
0.3353, -0.0229, -0.1189, -12.1298, -13.1069, 22.5954
0.2960, -0.0151, -0.0496, -11.6183, -4.5725, 22.8015
0.2164, -0.0334, 0.0659, -12.7481, -5.3359, 19.1527
0.1634, -0.0512, 0.1145, -11.2137, -16.0153, 23.4046
0.1121, -0.0969, 0.1011, -10.6794, -22.0382, 27.3511
0.1324, -0.0917, 0.0125, -16.1069, -19.5649, 23.7557
0.1639, -0.0917, -0.0500, -23.3740, -16.2061, 24.0534
0.1951, -0.0585, -0.0554, -25.2977, -9.5038, 24.6947
0.2147, -0.0109, -0.0312, -21.7557, -6.1603, 20.9847
0.2088, 0.0164, 0.0007, -12.9542, -11.0382, 20.6489
0.1807, 0.0174, 0.0488, -4.9389, -17.5649, 17.8550
0.1480, 0.0150, 0.0759, -5.6794, -17.7786, 18.0840
0.1331, 0.0306, 0.0439, -0.7786, -17.1221, 23.7939
0.1226, 0.0057, 0.0193, -1.3282, -9.2519, 22.3130
0.0982, 0.0135, -0.0652, -10.8702, 6.2595, 22.7634
0.0606, 0.0018, -0.0764, -18.8702, 21.2901, 27.1298
0.0301, -0.0029, -0.0835, -17.0840, 29.5649, 31.8473
-0.0060, -0.0204, -0.0286, -11.2061, 31.9847, 32.2137
-0.0124, -0.0500, 0.0303, -5.4122, 25.1527, 29.8855
-0.0007, -0.0449, 0.0728, -4.2443, 13.4580, 28.9389
0.0472, -0.0458, 0.0676, -1.6107, 1.3435, 30.3817
0.1307, -0.0187, 0.0425, -1.0916, -6.4046, 30.4275
0.1912, -0.0068, 0.0088, -4.9542, -2.5725, 29.1145
0.2237, 0.0196, 0.0332, -5.0153, 1.1756, 25.8244
0.2169, 0.0162, 0.0215, -5.8321, 3.7252, 28.1374
0.1910, 0.0103, 0.0574, -11.5420, 5.9313, 24.6947
0.1761, 0.0245, 0.0520, -7.4809, 1.0534, 26.7328
0.1461, 0.0076, 0.0298, -2.4351, -2.9237, 25.9160
0.1172, -0.0085, 0.0356, 2.9618, -6.2672, 22.6641
0.1031, -0.0329, 0.0244, 2.3282, -4.7863, 18.1221
0.1126, -0.0002, 0.0298, 1.1374, -4.0229, 10.0840
0.1268, 0.0103, 0.0571, -2.3206, -3.2595, 8.1756
0.1268, 0.0140, 0.0596, -6.7557, -5.6412, 7.5420
0.1204, 0.0316, 0.0544, -8.6031, -4.4885, 8.2901
0.1273, 0.0359, 0.0486, -4.1527, -8.2595, 9.9695
0.1050, -0.0146, 0.0281, -5.9313, -7.5038, 11.6565
0.0797, -0.0551, 0.0090, -11.6412, -2.5954, 12.4656
0.0381, -0.0563, 0.0117, -15.6107, -0.4580, 6.5267
0.0159, -0.0722, 0.0220, -9.9237, -4.7176, 5.5573
0.0220, -0.0859, 0.0261, -9.4580, -6.8092, 0.2519
0.0569, -0.0505, 0.0005, -8.2214, -8.7405, -1.2519
0.1075, -0.0043, 0.0110, -5.7710, -10.5725, 0.4275
0.1424, -0.0036, 0.0037, -6.7634, -7.8397, 4.2748
0.1458, -0.0068, 0.0120, -9.5573, -3.7939, 5.0840
0.1170, -0.0139, -0.0007, -12.4885, 0.3817, 9.7634
0.1102, -0.0131, 0.0259, -9.7023, -0.4885, 5.4275
0.0865, -0.0200, 0.0422, -4.6489, -0.5878, 2.7710
0.0733, -0.0527, 0.0522, -3.1069, 0.1679, -1.8015
0.0711, -0.0390, 0.0535, -4.3206, 0.4427, -5.3359
0.0748, -0.0156, 0.0898, -0.2901, -0.9695, -2.9847
0.0899, 0.0074, 0.0950, 4.6870, -4.5802, 3.0305
0.0848, 0.0059, 0.1011, 7.3740, -6.1298, 11.4504
0.0640, -0.0314, 0.0750, 4.0611, -4.7863, 10.7023
0.0345, -0.0659, 0.0625, -1.0916, -1.2824, 3.7710
0.0416, -0.0453, 0.0750, -2.6718, 0.8931, -0.8168
0.0823, -0.0214, 0.0720, 1.5725, -1.7328, 0.2672
0.1068, -0.0217, 0.0781, 2.7634, -2.6641, 3.9924
0.1129, 0.0071, 0.0471, 5.9237, -5.7786, 8.4275
0.1214, -0.0131, 0.0388, 7.2824, -6.5267, 10.5573
0.1036, -0.0297, 0.0295, 4.1221, -4.2290, 10.1145
0.0848, -0.0546, 0.0352, 0.1221, -1.3282, 5.0840
0.0682, -0.0673, 0.0425, -1.5878, -0.6183, 2.5725
0.0792, -0.0646, 0.0122, -4.1450, -1.0687, 1.5344
0.0926, -0.0541, 0.0183, -2.1832, -1.7557, 1.2214
0.1031, -0.0395, 0.0288, -0.5267, -2.6107, 1.2214
0.1209, -0.0292, 0.0327, 3.6947, -5.0458, 3.7328
0.1207, -0.0451, 0.0249, 3.1527, -4.2901, 4.1679
0.1063, -0.0724, -0.0002, 0.4427, -1.4351, 1.5191
0.0926, -0.0724, 0.0103, -2.5496, 2.4122, -2.7023
0.0853, -0.0659, 0.0610, -2.4198, 2.0076, -5.4122
0.0733, -0.0659, 0.0703, -3.0763, 0.1756, -7.5420
0.0772, -0.0373, 0.0508, -2.0687, -0.5496, -7.8092
0.0943, -0.0417, 0.0542, -1.0763, -1.8168, -6.9618
0.0941, -0.0134, 0.0591, -2.3206, -1.9160, -5.5420
0.0919, -0.0151, 0.0703, -1.2519, -3.9542, -2.8168
0.0833, -0.0090, 0.0547, -0.6565, -5.6565, -1.6412
0.0699, -0.0197, 0.0405, -0.1985, -6.3969, -1.1221
0.0557, -0.0356, 0.0227, 0.7328, -7.1832, -4.6718
0.0611, -0.0480, 0.0146, 0.3817, -6.6565, -7.0534
0.0648, -0.0490, 0.0042, -1.1145, -5.6947, -8.8092
0.0616, -0.0422, 0.0017, -2.5802, -5.3893, -10.5954
0.0689, -0.0361, 0.0042, -3.7939, -4.5802, -11.7481
0.0728, -0.0036, 0.0276, -3.9695, -4.4275, -12.3664
0.0579, -0.0170, 0.0386, -3.8626, -6.5496, -14.2748
0.0648, -0.0434, 0.0208, -6.4504, -7.8779, -22.0305
0.0650, -0.0436, 0.0149, -10.2748, -7.2748, -32.1374
0.0858, -0.0414, 0.0242, -11.8779, -6.3053, -38.6031
0.0958, -0.0681, 0.0264, -15.2290, -5.4198, -46.8550
0.1006, -0.0119, 0.0403, -8.5649, -8.2824, -46.2366
0.0648, -0.0934, 0.0168, -7.0305, -12.0687, -39.8626
0.0745, -0.1349, 0.0247, -19.7634, -8.1145, -50.0687
0.1363, -0.1022, -0.0037, -27.5114, -0.7710, -62.8473
0.1561, -0.1078, -0.0051, -38.2595, 8.0534, -73.5038
0.1419, -0.0954, 0.0300, -49.6260, 14.8550, -80.6107
0.1461, -0.0588, 0.0444, -47.9389, 11.7328, -93.6718
0.1485, -0.0749, 0.0471, -37.2366, 5.0458, -84.8702
0.1260, -0.1017, -0.0188, -38.5115, 6.2366, -83.7557
0.2642, 0.0572, 0.0281, -16.4733, 11.9237, -9.5191
0.1234, -0.2023, 0.0447, -17.2595, 4.5954, -35.3053
0.1402, -0.2328, 0.0127, -28.6031, 9.3130, -42.3511
0.1517, -0.1923, 0.0078, -39.8473, 13.5954, -59.3511
0.1666, -0.1589, 0.0488, -38.4427, 13.2519, -67.8931
0.1956, -0.1230, 0.0400, -29.9924, 7.0534, -61.0611
0.2342, -0.0641, 0.0410, -16.7786, 0.5496, -59.0229
0.2698, -0.0517, 0.0273, 2.3664, -3.8855, -61.0000
0.2606, -0.1335, -0.0012, 4.2901, -0.7176, -70.3511
0.2469, -0.2299, -0.0198, -7.5191, 8.2290, -71.8473
0.2256, -0.2099, 0.0024, -14.8397, 13.7710, -72.2214
0.2408, -0.2150, 0.0259, -14.8550, 11.8015, -71.1221
0.2288, -0.1965, 0.0391, -20.1374, 15.3282, -72.0916
0.2225, -0.1972, 0.0552, -19.9695, 16.9466, -68.7710
0.2181, -0.2106, 0.0332, -16.1450, 15.0076, -63.8626
0.2269, -0.2133, 0.0310, -13.2443, 11.5649, -65.0076
0.2581, -0.2053, 0.0127, 0.6870, 5.7099, -65.0153
0.2552, -0.2565, 0.0095, 4.9160, 7.3130, -69.8931
0.2466, -0.2802, -0.0037, -4.3130, 12.7634, -81.6565
0.2454, -0.2370, 0.0186, -10.2366, 18.6107, -79.1832
0.2308, -0.2402, 0.0305, -16.4580, 21.8397, -72.6489
0.2034, -0.2607, 0.0332, -20.5725, 23.5573, -64.1985
0.2269, -0.2575, 0.0491, -14.5954, 18.2977, -64.3664
0.2081, -0.2639, -0.0122, -12.1069, 18.9771, -65.8550
0.2083, -0.2648, -0.0203, -9.9160, 24.8244, -62.4351
0.2217, -0.2665, -0.0432, -2.1603, 25.7557, -70.0229
0.2220, -0.2411, -0.0464, 8.1756, 26.7557, -82.1908
0.2017, -0.2507, -0.0334, 11.7863, 27.5649, -87.6412
0.1900, -0.2722, -0.0051, 7.8931, 31.9695, -67.7557
0.1878, -0.2668, 0.0251, 2.4733, 33.5725, -54.5496
0.1981, -0.2851, 0.0017, -1.1832, 37.8702, -40.8779
0.2161, -0.2922, -0.0137, -12.5496, 42.6489, -36.9847
0.2383, -0.2582, 0.0059, -17.7328, 44.5038, -28.6794
0.2325, -0.2690, -0.0190, -21.9160, 45.3969, -22.4351
0.2318, -0.2643, -0.0520, -17.6794, 43.6260, -24.2901
0.2161, -0.2756, -0.0095, -4.9542, 42.9847, -16.1832
0.2100, -0.3017, -0.0371, -4.7939, 42.8626, -11.3206
0.2047, -0.3322, -0.0874, -7.2595, 43.6947, -10.6412
0.1922, -0.3439, -0.0850, -13.0534, 49.7634, -9.9084
0.2154, -0.3000, -0.0757, -22.7786, 53.5267, -19.3893
0.2173, -0.2836, -0.0142, -27.7328, 59.6565, -17.9160
0.2105, -0.2761, 0.0049, -24.8702, 58.0840, -17.9389
0.2396, -0.2131, 0.0354, -4.7328, 49.9542, -22.8092
0.2757, -0.2311, 0.0120, 7.3130, 44.7786, -16.7939
0.2864, -0.2243, 0.0327, 6.7481, 44.9084, -11.9008
0.2554, -0.2514, 0.0369, 10.0840, 38.0992, -8.1832
0.2359, -0.2685, 0.0012, 18.4046, 31.4504, -5.7939
0.2398, -0.2629, -0.0115, 23.6641, 27.6947, -6.7557
0.2083, -0.2936, -0.0024, 22.0458, 26.4122, -1.3359
0.2288, -0.2880, 0.0083, 16.5573, 23.6565, -0.5878
0.2503, -0.2704, 0.0054, 15.5649, 17.6565, -0.4427
0.2359, -0.3024, -0.0186, 13.1145, 15.6336, -0.0992
0.2481, -0.2814, -0.0139, 12.8779, 10.8931, -3.1756
0.2564, -0.2739, -0.0186, 17.9313, 5.8015, -4.7099
0.2491, -0.2604, -0.0076, 16.4504, 5.5191, -5.2672
0.1973, -0.2956, 0.0125, 17.2595, 0.8931, 2.0076
0.1588, -0.3056, 0.0376, 20.9466, -3.4733, 7.3282
0.1324, -0.3491, 0.0547, 21.6947, -8.1298, 8.7557
0.1104, -0.3400, 0.0605, 25.0153, -11.1756, 7.6412
0.1334, -0.3188, 0.0178, 28.7023, -12.7328, 11.1756
0.1668, -0.3286, -0.0063, 19.5191, -9.0687, 6.8626
0.2164, -0.2883, -0.0142, 12.6870, -6.2595, 4.9924
0.2339, -0.2453, -0.0156, 8.7405, -6.0611, 4.6641
0.2332, -0.2365, 0.0103, 11.9771, -7.3511, 6.2672
0.2110, -0.2709, 0.0098, 8.4733, -7.0229, 5.3206
0.1990, -0.2712, 0.0273, 6.5038, -5.5496, 5.1298
0.1968, -0.2643, 0.0374, 7.3664, -4.5802, 10.9924
0.2027, -0.2802, 0.0488, 2.4198, -5.5191, 14.5878
0.2200, -0.2736, 0.0408, 0.1221, -7.4580, 18.6794
0.2557, -0.2512, 0.0354, 1.8702, -10.0153, 23.1603
0.2972, -0.2536, -0.0176, 1.1832, -8.6565, 27.3740
0.2840, -0.2492, -0.0259, -4.5420, -6.7786, 28.3893
0.2625, -0.2470, -0.0093, -7.6718, -4.0458, 29.0000
0.2264, -0.2553, 0.0322, -13.7863, -1.5954, 27.8168
0.2066, -0.2585, 0.0598, -13.6718, -4.9924, 30.7328
0.1890, -0.2953, 0.0278, -12.3511, -11.2824, 34.0382
0.2108, -0.3098, 0.0007, -11.2443, -17.5649, 32.9160
0.2862, -0.2480, -0.0461, -2.1221, -21.9771, 32.5573
0.3358, -0.2138, -0.0942, 1.5878, -22.1527, 34.5191
0.3299, -0.1906, -0.1252, 5.5344, -21.3130, 36.9542
0.2606, -0.2031, -0.0999, 7.4656, -18.9924, 46.7786
0.1741, -0.2621, -0.0364, -0.4198, -16.2290, 41.6565
0.1202, -0.3027, 0.0498, -9.7557, -16.6641, 38.4885
0.1089, -0.2673, 0.1084, -12.9618, -22.6718, 33.4962
0.1478, -0.2277, 0.1152, 3.1069, -36.2824, 30.4275
0.2342, -0.2341, 0.0181, 13.3435, -45.3969, 25.4733
0.2574, -0.1581, -0.0305, 12.4351, -37.5649, 32.2672
0.2933, -0.0981, -0.0776, 11.7099, -32.7481, 30.6336
0.2303, -0.1562, -0.0872, -2.4580, -23.6794, 40.4885
0.0655, -0.2734, 0.0388, -17.4122, -19.1832, 34.6565
-0.0883, -0.3676, 0.1553, -28.7252, -20.6794, 13.2290
-0.0446, -0.3644, 0.1628, -23.1374, -28.5802, 3.0611
0.0606, -0.2639, 0.0847, -17.9924, -33.1527, -8.9542
0.2090, -0.1325, -0.0142, -5.7939, -33.7481, 2.6031
0.2523, -0.0917, -0.0938, 0.7863, -30.3282, 23.1679
0.2090, -0.1262, -0.0745, -0.3130, -23.3359, 35.1756
0.1119, -0.2299, -0.0098, -1.8092, -24.3435, 34.1221
0.0555, -0.2543, 0.0549, 5.0076, -30.3359, 32.6947
0.0452, -0.2734, 0.0662, 6.8168, -35.6031, 27.6031
0.1141, -0.2084, 0.0159, 8.9160, -39.5344, 16.5267
0.2025, -0.1362, -0.0405, 9.8855, -33.9771, 16.4809
0.2025, -0.1193, -0.0425, 3.4580, -26.4427, 16.6794
0.1739, -0.1591, -0.0361, -1.1679, -23.0763, 14.7023
0.1055, -0.1982, -0.0005, 7.0229, -24.0992, 19.4122
0.0396, -0.2253, 0.0662, 20.5344, -30.1069, 22.6641
0.0518, -0.2453, 0.1050, 25.0229, -36.0153, 27.0763
0.1170, -0.1913, 0.0459, 27.9389, -40.7634, 24.2901
0.1937, -0.1291, -0.0017, 25.2519, -38.1221, 21.9313
0.2342, -0.0786, -0.0212, 15.0153, -29.4122, 20.1145
0.1978, -0.1039, 0.0154, 6.3359, -18.5802, 20.5573
0.1282, -0.1450, 0.0774, 3.7863, -15.8779, 23.0840
0.0858, -0.1916, 0.0786, 4.5038, -15.6718, 19.1679
0.0547, -0.2023, 0.0920, 1.1450, -15.6489, 14.9542
0.0740, -0.1921, 0.0959, -1.4275, -15.3588, 10.4962
0.1641, -0.1096, 0.0376, 1.7328, -18.7863, 16.9847
0.1807, -0.1066, 0.0122, -0.2824, -14.9618, 17.6183
0.1649, -0.1047, -0.0010, 4.1908, -12.3282, 20.1756
0.1170, -0.1745, 0.0369, 5.9313, -9.8855, 16.6718
0.0704, -0.2219, 0.0481, 5.5191, -11.5115, 7.4580
0.0472, -0.2377, 0.0410, 8.9771, -14.9313, 0.1756
0.0792, -0.2070, 0.0603, 11.9466, -17.1756, -7.2595
0.1280, -0.1633, 0.0378, 14.5573, -18.6870, -4.9313
0.1710, -0.1091, 0.0337, 14.5878, -19.2137, -0.3206
0.1724, -0.0961, 0.0361, 6.8779, -15.3588, 6.0840
0.1436, -0.1132, 0.0513, 3.2901, -14.4351, 12.0305
0.1351, -0.1279, 0.0642, 2.4046, -15.5038, 11.0382
0.1570, -0.1166, 0.0427, 7.5115, -16.7939, 11.4733
0.1556, -0.1308, 0.0247, 5.1679, -15.0840, 8.3206
0.1461, -0.1464, 0.0466, 10.6794, -25.3664, -0.1298
0.1595, -0.1437, 0.0315, 15.8931, -22.3053, 1.7405
0.1739, -0.1408, 0.0122, -1.6107, -13.0000, 0.4198
0.1956, -0.0834, 0.0457, 3.9695, -15.4275, 3.2672
0.1834, -0.0939, 0.0383, 9.3282, -19.0534, 5.7252
0.1756, -0.1130, -0.0005, 8.4885, -19.5954, 8.7099
0.1314, -0.1799, 0.0229, 4.1908, -18.4962, 3.7328
0.0926, -0.2109, 0.0442, -2.5725, -15.9160, -7.2137
0.1077, -0.1899, 0.0486, 2.3282, -18.3359, -7.9542
0.1426, -0.1623, 0.0349, -2.0611, -14.2137, -10.5496
0.1834, -0.1125, 0.0618, -1.8702, -11.6107, -5.7252
0.2073, -0.0934, 0.0569, 7.4580, -12.6718, 1.0382
0.1854, -0.1418, 0.0483, 2.4351, -11.2137, 3.8015
0.1588, -0.1589, 0.0535, -3.2366, -9.2214, -0.4504
0.1280, -0.1786, 0.0903, -3.2748, -9.5115, -5.5496
0.1172, -0.1879, 0.1050, -2.2748, -8.6565, -12.5115
0.1600, -0.1894, 0.1028, -3.3664, -8.2519, -19.7939
0.1736, -0.1669, 0.0662, -5.6107, -6.2824, -18.0534
0.2130, -0.1342, 0.0439, -6.0076, -5.5191, -17.9389
0.2161, -0.1254, 0.0256, -2.6336, -6.6183, -13.3969
0.2120, -0.1201, 0.0142, -1.9084, -7.1374, -13.7252
0.2051, -0.1220, 0.0015, -4.2748, -5.2519, -14.5954
0.1942, -0.1335, -0.0354, -7.0458, -2.7863, -20.1298
0.1795, -0.1369, -0.0312, -11.1069, -1.3740, -26.9924
0.1866, -0.1328, -0.0127, -11.7786, -2.5191, -32.6031
0.2183, -0.0971, -0.0176, -3.0763, -4.9237, -29.1221
0.2515, -0.1030, -0.0332, 2.5878, -6.7557, -30.4504
0.2444, -0.1296, -0.0244, 5.4809, -8.0153, -31.8626
0.1944, -0.1484, -0.0181, 12.5954, 0.3130, -21.9695
0.1944, -0.1779, -0.0010, 11.4351, -6.9389, -37.9389
0.1871, -0.1743, 0.0430, 12.3740, -7.7099, -38.8015
0.1888, -0.1511, 0.0562, 16.5191, -10.2519, -38.6107
0.1985, -0.1447, 0.0459, 11.4275, -9.2748, -35.8779
0.1736, -0.1703, 0.0645, 3.8244, -6.8855, -35.3664
0.1522, -0.1672, 0.0647, 2.4275, -5.9008, -39.3817
0.1688, -0.1450, 0.0894, 4.9924, -4.5344, -43.6489
0.2252, -0.0964, 0.0698, 6.3588, -3.4198, -44.7099
0.2715, -0.0788, 0.0312, 10.1221, -0.7786, -38.1603
0.2986, -0.0849, 0.0161, 6.3511, 0.4046, -38.6718
0.2869, -0.1201, -0.0022, -10.8855, 6.9542, -43.6336
0.2393, -0.1638, 0.0627, -22.5649, 10.6107, -52.4046
0.2403, -0.1245, 0.0808, -18.0611, 8.9924, -56.2901
0.2962, -0.1042, 0.0508, -12.6870, 10.0000, -58.1603
0.3184, -0.1125, 0.0454, -15.0763, 13.2061, -59.5267
0.3362, -0.1061, 0.0347, -18.2901, 16.3893, -60.3893
0.3675, -0.0739, 0.0266, -11.3053, 16.2443, -56.0916
0.3900, -0.0500, 0.0212, 2.2672, 15.3817, -48.4962
0.4100, -0.1027, 0.0325, 10.2290, 9.8092, -47.5267
0.3929, -0.1310, 0.0476, 7.9313, 10.2137, -53.9389
0.3731, -0.1345, 0.1011, 6.6565, 10.2366, -53.4046
0.3936, -0.0976, 0.1072, 5.3130, 10.5878, -49.1985
0.4483, -0.0331, 0.1328, 2.1908, 12.5420, -45.9695
0.4295, 0.0731, 0.0635, 15.3740, 19.8702, -23.5496
0.5027, -0.0507, 0.0332, 18.6641, 7.9542, -18.0000
0.4376, -0.1877, 0.0005, -3.9542, 16.9237, -27.7328
0.4200, -0.1660, 0.0027, -11.5115, 26.3588, -35.9618
0.4400, -0.1003, 0.0544, -11.4885, 30.0076, -40.6947
0.4571, -0.0966, 0.0664, -9.5420, 29.8397, -35.9160
0.4359, -0.1149, 0.0471, -10.9771, 29.9160, -28.0382
0.4056, -0.1408, 0.0737, -13.1908, 29.7863, -26.9847
0.4061, -0.1325, 0.0925, -13.6565, 27.9160, -24.4427
0.4271, -0.0869, 0.0911, -12.0840, 24.1679, -15.0840
0.4644, -0.0717, 0.0803, -7.7557, 19.7786, -7.7023
0.4861, -0.1149, -0.0005, -5.6718, 19.1145, -4.8626
0.4483, -0.1533, -0.0337, -14.8931, 22.0305, -15.3511
0.4268, -0.1852, -0.0281, -13.2901, 22.3130, -20.1679
0.4288, -0.1623, -0.0056, -5.8779, 19.7405, -20.5344
0.4383, -0.1432, -0.0051, 0.9389, 17.2977, -15.0763
0.4493, -0.1220, -0.0281, 3.9771, 16.4886, -14.1527
0.4688, -0.1642, -0.0457, 2.1985, 15.1069, -15.2137
0.4637, -0.1159, 0.0051, -0.2061, 13.2137, -14.7710
0.4615, -0.1249, 0.0168, 1.1450, 9.1832, -13.6565
0.4388, -0.1403, 0.0066, 0.1832, 7.0687, -4.8855
0.4437, -0.1445, 0.0107, 7.8092, 3.2672, -8.2137
0.4634, -0.1401, 0.0208, 9.9618, 1.9466, -7.6947
0.4456, -0.1428, 0.0378, 3.5725, 5.0534, -6.4046
0.4295, -0.1462, 0.0427, 10.2061, 0.3740, -1.5115
0.4080, -0.1782, 0.0286, 8.4046, -2.3511, -2.4580
0.4200, -0.1511, 0.0000, 8.7557, -3.3664, -1.5267
0.4410, -0.1391, -0.0388, 7.6565, -1.8321, 1.3588
0.4329, -0.1445, -0.0244, 3.0076, 1.1832, 7.7557
0.4102, -0.1965, 0.0054, -4.3969, 0.7176, 1.1145
0.3409, -0.1979, 0.0542, -3.5878, -2.0000, -0.7710
0.3480, -0.1921, 0.0757, -4.2824, -3.5344, -3.5496
0.3831, -0.1528, 0.0610, -7.9847, -2.6031, -2.6489
0.4297, -0.0993, 0.0032, -2.4733, -2.9008, -3.0305
0.4400, -0.1108, -0.0095, 0.2595, -1.9389, 1.7099
0.4280, -0.1420, -0.0049, -0.2901, 0.8015, 5.8550
0.4232, -0.1530, -0.0083, 1.5878, 1.9771, 9.4733
0.4219, -0.1506, 0.0046, 1.6336, 3.5267, 12.4885
0.4114, -0.1418, 0.0208, 1.8397, 3.5725, 15.2061
0.4080, -0.1432, 0.0442, 1.3969, 2.5649, 17.6489
0.4005, -0.1337, 0.0444, 1.2137, 1.5191, 20.7557
0.4056, -0.1337, 0.0376, 2.4733, 0.8855, 25.4351
0.4022, -0.1508, 0.0303, 0.7557, 0.8931, 25.3588
0.4017, -0.1611, 0.0115, -1.1145, 2.5573, 24.5191
0.3963, -0.1623, 0.0249, -4.6641, 4.1679, 25.3740
0.4009, -0.1486, 0.0232, -6.3206, 5.0916, 25.8015
0.4205, -0.1276, 0.0146, -3.3282, 5.3206, 29.2137
0.4373, -0.1032, 0.0168, -0.4885, 4.7328, 31.0305
0.4471, -0.1027, 0.0010, 4.1756, 3.6107, 32.7099
0.4422, -0.1303, 0.0134, 5.9160, 2.6947, 36.3053
0.4395, -0.1232, 0.0356, 6.2748, -1.8244, 37.2824
0.4542, -0.1044, 0.0127, 13.2061, -6.3359, 39.8931
0.4703, -0.0866, -0.0195, 18.7557, -8.9847, 42.3282
0.4935, -0.0954, -0.0420, 19.6718, -7.2595, 40.9771
0.5154, -0.0624, -0.0232, 17.1069, -6.1374, 38.4885
0.4964, -0.0705, -0.0127, 14.9160, -8.4275, 34.9695
0.4810, -0.0795, 0.0063, 14.4198, -11.3893, 37.2061
0.4473, -0.0864, 0.0066, 10.1069, -11.4504, 42.3282
0.3963, -0.1030, 0.0286, 5.3282, -11.4198, 38.8931
0.3475, -0.1149, 0.0786, 8.9466, -13.6947, 37.3511
0.3057, -0.1428, 0.0974, 14.6718, -17.9237, 34.8931
0.2899, -0.1562, 0.1067, 13.0305, -20.7328, 32.0840
0.3008, -0.1286, 0.1194, 10.8244, -22.6183, 35.4046
0.3326, -0.1064, 0.1001, 13.2595, -27.8092, 39.5725
0.3607, -0.0976, 0.0557, 8.0076, -27.9466, 45.8168
0.3660, -0.0956, 0.0161, 0.9847, -24.1450, 50.7405
0.3392, -0.1032, 0.0190, 3.7252, -19.7099, 49.6641
0.3094, -0.1247, 0.0222, 1.9847, -17.9084, 44.0153
0.2889, -0.1020, 0.0679, -2.1527, -14.3053, 41.6794
0.2586, -0.0847, 0.1030, -1.0153, -14.5191, 42.2519
0.2562, -0.1118, 0.1284, 2.8168, -17.8473, 41.0916
0.2674, -0.1044, 0.0999, 4.2519, -18.5725, 38.4275
0.3089, -0.0681, 0.0598, 6.2672, -15.2748, 39.4733
0.3443, -0.0583, 0.0474, 3.8092, -11.3588, 38.8779
0.3218, -0.0798, 0.0042, -3.8550, -5.0992, 39.6260
0.2786, -0.1066, 0.0229, -11.3817, 0.9771, 33.3282
0.2283, -0.1096, 0.0520, -16.9084, 4.1221, 32.7099
0.2012, -0.1591, 0.0854, -13.0611, 1.7099, 38.4275
0.1890, -0.1469, 0.0771, -8.1832, -2.5649, 37.3053
0.2059, -0.1747, 0.0183, -6.5344, -4.1832, 28.9771
0.2176, -0.1313, 0.0049, -8.4427, -0.3664, 25.6947
0.2432, -0.0727, 0.0227, -6.7023, 1.3817, 26.3893
0.2540, -0.0456, 0.0522, -3.9313, 3.0305, 33.2824
0.2120, -0.0141, 0.0945, -5.5573, 4.8321, 44.8168
0.1973, -0.1142, 0.0627, -13.8168, 5.1450, 44.5649
0.1829, -0.1850, 0.0259, -20.6183, 12.7176, 44.8550
0.1790, -0.1569, 0.0022, -35.1145, 12.6718, 22.0534
0.2215, -0.0844, 0.0393, -37.8702, 14.1756, 16.4275
0.2274, -0.0305, 0.0659, -28.1374, 6.3511, 22.8855
0.2322, -0.0339, 0.0479, -13.2595, 0.4809, 28.3893
0.2156, -0.0554, 0.0867, -3.4046, -1.2443, 33.1908
0.1993, -0.0878, 0.0823, -0.5725, -5.3817, 34.2595
0.1824, -0.1220, 0.0630, -2.0229, -4.9008, 32.7252
0.1722, -0.1435, 0.0359, -5.8244, -2.6641, 29.0305
0.1839, -0.1074, 0.0117, -10.1679, -1.8931, 21.1145
0.1898, -0.1054, -0.0015, -8.1450, -2.9084, 19.2901
0.1666, -0.1044, 0.0183, -6.7634, -4.0153, 19.2672
0.1646, -0.0966, 0.0239, 2.0763, -7.5573, 22.4580
0.1339, -0.1545, 0.0317, 1.7481, -8.4122, 23.3817
0.1163, -0.1623, 0.0461, 1.0840, -8.5802, 22.1679
0.1277, -0.1452, 0.0535, 3.3435, -10.4733, 19.8321
0.1570, -0.1201, 0.0361, 5.9389, -10.4351, 20.5038
0.1849, -0.1108, 0.0359, 7.6565, -8.5802, 21.2672
0.1912, -0.1081, 0.0439, 8.5725, -7.1298, 21.1985
0.2025, -0.1093, 0.0361, 8.9618, -6.2595, 19.8015
0.1939, -0.1276, 0.0288, 4.1374, -2.6107, 17.9160
0.1785, -0.1535, 0.0005, -4.7099, 2.5954, 12.9847
0.1717, -0.1567, 0.0225, -7.1069, 5.5496, 7.1450
0.1832, -0.1440, 0.0420, -6.9008, 6.0000, 6.0076
0.1929, -0.1337, 0.0225, -6.1756, 7.0458, 5.4046
0.1942, -0.1491, 0.0264, -8.8015, 8.8550, 3.4885
0.1861, -0.1603, 0.0366, -10.7634, 9.4885, 2.4809
0.1790, -0.1325, 0.0334, -6.1450, 7.7481, 0.1450
0.1915, -0.1616, 0.0366, -2.9008, 6.1832, 0.3053
0.1971, -0.1552, 0.0020, -3.7863, 7.4656, -1.8015
0.1844, -0.1747, 0.0017, -10.6412, 9.5878, -5.0840
0.1754, -0.1823, 0.0271, -8.6718, 10.2901, -5.8550
0.1793, -0.1728, 0.0166, -7.7252, 7.9313, -8.3435
0.1863, -0.1794, 0.0173, -4.3588, 4.2061, -10.2443
0.1780, -0.1987, 0.0146, -2.4122, 1.2748, -11.7023
0.1900, -0.1672, 0.0330, -2.6336, -0.5344, -11.7252
0.2051, -0.1657, 0.0286, -2.4046, -2.7557, -9.7557
0.2066, -0.1581, 0.0232, -4.5649, -4.1069, -12.0763
0.1971, -0.1523, 0.0500, -6.1756, -3.6336, -15.7176
0.1807, -0.1569, 0.0767, -7.6183, -5.2901, -15.2137
0.1746, -0.1579, 0.0610, -9.3053, -6.5725, -14.1069
0.1758, -0.1462, 0.0542, -5.0763, -8.0611, -12.0763
0.1707, -0.1371, 0.0557, -3.2137, -9.5649, -10.1908
0.1600, -0.1320, 0.0498, -2.9084, -10.7099, -6.9389
0.1343, -0.1577, 0.0178, -4.7405, -9.5573, -7.6718
0.1072, -0.1623, 0.0076, -9.6107, -6.3817, -10.4733
0.1063, -0.1547, 0.0105, -11.0916, -4.5420, -12.1298
0.1031, -0.1591, -0.0254, -9.8397, -1.6107, -15.2824
0.0989, -0.1608, -0.0425, -11.3435, 2.0763, -21.0916
0.1006, -0.1594, -0.0359, -7.8550, 2.5115, -23.4504
0.0760, -0.1645, -0.0154, 0.8168, 1.4351, -23.8855
0.0679, -0.1579, -0.0061, 13.7176, -2.6336, -21.6641
0.0967, -0.1398, -0.0203, 28.8931, -5.8168, -17.9008
0.1353, -0.1403, -0.0195, 34.3206, -7.4198, -12.7557
0.1776, -0.0961, -0.0078, 34.8473, -4.9695, -11.3130
0.1785, -0.1550, -0.0051, 25.6870, -1.2290, -15.9466
0.1541, -0.1662, 0.0310, 11.4046, 3.5115, -22.4886
0.1619, -0.1179, 0.0669, 14.2672, 4.1603, -24.5191
0.1890, -0.1030, 0.0930, 21.2824, 3.2137, -22.7176
0.2110, -0.1096, 0.0515, 14.5954, 7.7328, -22.4046
0.2234, -0.1220, 0.0605, 5.3282, 11.9160, -25.9618
0.2493, -0.0764, 0.0745, 8.9924, 12.7634, -25.2214
0.2642, -0.0883, 0.0972, 11.3435, 13.2519, -22.1603
0.2767, -0.0722, 0.1106, 8.9466, 12.7786, -20.4504
0.2613, -0.0859, 0.1255, 9.4733, 12.8702, -22.6107
0.2606, -0.0671, 0.1321, 23.8092, 10.7939, -19.7328
0.2750, -0.0639, 0.1370, 33.9771, 6.2366, -15.8321
0.2693, -0.1120, 0.1426, 32.5496, 6.0611, -13.8702
0.2711, -0.1550, 0.0789, 14.2366, 7.7939, -29.3206
0.2913, -0.1716, 0.0454, -3.4885, 18.0458, -42.7023
0.3087, -0.1528, 0.0447, -14.0840, 26.3053, -55.7481
0.3128, -0.1227, 0.0720, -20.6183, 30.1069, -65.1679
0.2828, -0.1454, 0.0962, -19.8321, 29.7328, -72.0305
0.2967, -0.1474, 0.1233, -19.9847, 27.9160, -65.6336
0.3130, -0.1232, 0.1147, -18.5878, 33.0458, -59.2290
0.3143, -0.1188, 0.0862, -19.0763, 18.8855, -64.5420
0.3487, -0.1130, 0.0530, -15.8321, 21.6260, -60.6489
0.3773, -0.1179, 0.0142, -4.0305, 23.3359, -53.7252
0.4005, -0.1274, -0.0095, -5.4733, 25.4580, -50.5802
0.4024, -0.1725, -0.0327, -17.8931, 23.8702, -48.6565
0.3648, -0.1660, -0.0298, -29.5038, 33.5420, -45.0458
0.3487, -0.1816, -0.0110, -28.5420, 32.5267, -44.2443
0.3265, -0.1887, 0.0254, -23.2595, 30.9084, -43.7557
0.3343, -0.1955, 0.0266, -16.2137, 24.5344, -44.3817
0.3690, -0.1611, 0.0107, -12.5267, 20.8855, -46.6794
0.4041, -0.1496, -0.0173, -8.5038, 21.5649, -39.1985
0.4144, -0.1406, -0.0393, -7.1908, 20.6107, -36.8397
0.3958, -0.1686, -0.0137, -9.1832, 19.9237, -33.4809
0.3746, -0.1620, -0.0176, -3.9313, 17.2061, -26.3206
0.3482, -0.1857, 0.0156, -0.6183, 15.8855, -21.2672
0.3270, -0.2136, 0.0510, -1.3130, 14.1145, -22.8473
0.3297, -0.2226, 0.0332, -4.5649, 12.2824, -21.5420
0.3380, -0.2099, 0.0291, -4.5191, 10.5267, -15.1679
0.3692, -0.1699, 0.0034, 0.4122, 8.3053, -8.3206
0.3975, -0.1786, -0.0012, 4.7099, 5.7405, 1.5267
0.4197, -0.1403, -0.0239, 2.7786, 7.3053, -0.6718
0.4329, -0.1325, -0.0264, 4.8397, 7.6412, 1.2290
0.3919, -0.1774, -0.0266, 5.0992, 7.8015, 0.0992
0.3311, -0.2250, 0.0117, 4.1679, 6.1832, -1.2366
0.3267, -0.2512, 0.0190, -0.1527, 6.5344, -5.8855
0.3133, -0.2526, 0.0298, -2.9924, 4.7176, -6.3740
0.3245, -0.2319, 0.0217, -1.5649, 0.0076, -5.4122
0.3377, -0.2162, 0.0217, -1.4580, -3.3435, -3.2366
0.3563, -0.1828, 0.0005, 1.1832, -5.3206, -0.4580
0.3641, -0.1811, 0.0012, 5.5115, -6.9237, 6.6412
0.3511, -0.2014, 0.0039, 7.3740, -8.1298, 7.1221
0.3458, -0.2053, -0.0249, 11.4427, -9.2519, 12.1756
0.3055, -0.2238, 0.0081, 9.3588, -6.9008, 9.0840
0.3028, -0.2299, 0.0347, 4.3053, -5.9389, 6.2366
0.2889, -0.2206, 0.0425, 3.1603, -6.9924, 5.0534
0.2950, -0.2104, 0.0269, 3.0611, -7.9313, 6.5725
0.3250, -0.1862, 0.0049, 1.9924, -7.2519, 7.5267
0.3553, -0.1652, 0.0022, 2.2443, -6.5878, 10.5191
0.3729, -0.1403, 0.0073, 7.0687, -7.9160, 15.1832
0.3575, -0.1679, 0.0054, 7.9389, -7.2748, 18.9008
0.3443, -0.1774, 0.0215, 7.8931, -7.1527, 22.2061
0.3411, -0.1921, 0.0100, 8.2443, -7.6947, 23.6718
0.3526, -0.1945, 0.0112, 7.2061, -7.8244, 23.2519
0.3665, -0.1850, 0.0020, 5.9542, -7.9771, 20.7634
0.3836, -0.1679, -0.0098, 6.3969, -10.4198, 21.1679
0.4014, -0.1345, -0.0056, 7.8321, -10.6336, 27.1603
0.4454, -0.1066, -0.0105, 10.5191, -13.7939, 33.1298
0.4185, -0.1098, -0.0225, 8.7557, -15.2977, 35.1603
0.3748, -0.1503, 0.0017, 5.9618, -15.2290, 34.1832
0.3362, -0.1633, 0.0247, 4.9389, -17.8321, 30.7786
0.3209, -0.1735, 0.0295, 8.5573, -22.8550, 26.9695
0.3091, -0.1867, 0.0471, 14.4504, -26.4962, 28.7405
0.3101, -0.1733, 0.0530, 19.7023, -30.7863, 29.2748
0.3157, -0.1845, 0.0498, 22.3664, -31.3130, 33.7023
0.3380, -0.1845, 0.0366, 24.7939, -32.5115, 34.1908
0.3675, -0.1567, 0.0002, 23.5191, -30.6794, 30.8855
0.3922, -0.1293, 0.0095, 18.4733, -27.4886, 27.1069
0.4007, -0.0995, 0.0103, 20.5114, -26.3359, 25.9847
0.3958, -0.0734, 0.0059, 22.1450, -21.9771, 25.5954
0.3726, -0.1030, 0.0325, 19.6412, -19.4656, 21.5038
0.3353, -0.1003, 0.0750, 22.1298, -18.0611, 21.3435
0.2925, -0.1357, 0.1072, 23.2748, -20.1374, 26.8015
0.2952, -0.1523, 0.1011, 28.1756, -23.9847, 29.3282
0.3299, -0.1120, 0.0437, 29.4427, -26.9466, 31.2595
0.3741, -0.0593, -0.0427, 20.3053, -22.5038, 33.4656
0.3834, -0.0825, -0.0515, 9.4733, -9.1756, 33.9160
0.3206, -0.1306, 0.0291, -5.0687, -5.2137, 25.4580
0.2894, -0.0891, 0.1458, -8.6183, -4.3740, 33.4427
0.2425, -0.1013, 0.1807, 1.6260, -10.5115, 37.4275
0.2630, -0.0810, 0.1279, 17.6565, -17.4962, 41.2137
0.3377, -0.0612, 0.0081, 15.2061, -15.2443, 38.9771
0.4283, 0.0211, -0.0457, 9.1450, -4.6031, 35.9160
0.4507, 0.0150, -0.0171, 1.4198, 1.6489, 32.0000
0.3648, 0.0208, 0.0417, -2.7176, 8.1069, 31.0305
0.2996, -0.0080, 0.0906, 0.8168, 9.8244, 35.3817
0.2408, -0.0663, 0.1045, -0.0153, 11.7252, 38.7786
0.2249, -0.1122, 0.0884, -6.4122, 13.8244, 38.5420
0.1956, -0.0703, 0.0598, -8.9924, 16.8015, 39.3588
0.1949, -0.1064, 0.0840, -15.0382, 17.8550, 40.4656
0.2068, -0.1345, 0.0845, -23.8779, 16.7786, 38.3817
0.2230, -0.0558, 0.0811, -29.9084, 12.4885, 24.1679
0.2347, -0.0410, 0.1011, -22.8168, 7.1069, 18.8931
0.2327, 0.0023, 0.1023, -11.2443, -0.7328, 25.3740
0.2103, -0.0319, 0.0740, 1.4351, -3.0076, 33.9084
0.1854, -0.0898, 0.0259, 1.0458, -1.0763, 31.0534
0.1614, -0.1061, 0.0183, -5.1374, 2.5649, 23.6947
0.1426, -0.1384, 0.0017, -1.7939, 0.3282, 24.2748
0.1287, -0.1352, -0.0310, -1.1908, -1.1679, 15.1603
0.1360, -0.0900, -0.0027, -0.2519, -1.9008, 9.5802
0.1456, -0.0390, 0.0117, 6.8779, -5.2443, 9.3740
0.1614, -0.0378, 0.0596, 11.6107, -4.4733, 10.7786
0.1600, -0.0187, 0.0757, 13.3588, -4.7023, 16.8321
0.1468, -0.0175, 0.1072, 15.6718, -4.8473, 21.2214
0.1329, -0.0607, 0.0769, 13.9542, -4.7252, 21.1527
0.1204, -0.0761, 0.0527, 6.9542, -0.9924, 13.3588
0.1036, -0.0849, 0.0430, -0.0229, 3.0153, 9.0458
0.1019, -0.0493, 0.0647, 1.0687, 0.6641, 7.5420
0.1348, -0.0339, 0.0588, 6.3282, -2.1298, 10.4656
0.1541, -0.0102, 0.0444, 4.4885, -0.6641, 11.6412
0.1639, 0.0064, 0.0674, 7.2443, -1.6183, 15.1145
0.1656, 0.0169, 0.0754, 14.2672, -6.0992, 21.8702
0.1614, -0.0148, 0.0510, 14.0458, -6.9389, 21.9847
0.1514, -0.0349, 0.0222, 6.3740, -1.3206, 11.8626
0.1553, -0.0595, 0.0283, -0.4427, 2.9466, 1.2214
0.1475, -0.0165, 0.0552, -3.3664, 5.8855, 6.0000
0.1570, -0.0329, 0.0522, 1.2977, 1.3130, 10.6031
0.1600, -0.0532, 0.0300, 3.5878, 0.0992, 12.3282
0.1468, -0.0620, 0.0381, 1.0992, 1.1679, 10.0305
0.1592, -0.0568, 0.0413, 0.1679, 2.2519, 6.9237
0.1546, -0.0688, 0.0317, -1.2748, 2.6183, 7.7099
0.1546, -0.0703, 0.0352, -0.3817, 2.6031, 7.6412
0.1536, -0.0876, 0.0347, 0.7023, 1.6412, 5.8092
0.1590, -0.0954, 0.0159, -0.6641, 2.1069, 1.0000
0.1666, -0.0912, 0.0276, -0.9466, 1.8321, -3.6718
0.1749, -0.0959, 0.0298, 0.0611, 0.2595, -5.0458
0.1790, -0.0771, 0.0378, -0.1679, 0.3511, -5.2137
0.1749, -0.0834, 0.0544, -0.2366, -0.2214, -5.1069
0.1758, -0.0922, 0.0442, -4.4504, 0.5038, -7.0229
0.1893, -0.0627, 0.0500, -3.8626, 0.0763, -7.8244
0.1902, -0.0690, 0.0647, -4.0305, -2.1450, -6.3359
0.1956, -0.0524, 0.0449, -5.1985, -2.8855, -7.3053
0.1851, -0.0607, 0.0405, -5.8244, -2.8092, -8.1679
0.1653, -0.0663, 0.0598, -6.7557, -4.1908, -7.7023
0.1402, -0.0673, 0.0408, -16.1832, -5.9924, -12.4198
0.1358, -0.1191, 0.0625, -12.0611, -5.2748, -12.9695
0.1194, -0.0842, 0.0603, -11.5802, -5.6565, -14.1221
0.1351, -0.0724, 0.0422, -11.0305, -7.0000, -16.4427
0.1443, -0.0834, 0.0212, -8.7557, -8.6107, -15.3130
0.1426, -0.0646, 0.0146, -12.1450, -8.2290, -15.6260
0.1509, -0.0793, 0.0083, -10.3969, -7.2595, -15.5573
0.1341, -0.0942, 0.0117, -11.0840, -7.4122, -19.3130
0.1402, -0.1110, 0.0044, -10.3282, -7.2595, -20.2366
0.1334, -0.1013, 0.0161, -8.7099, -8.3817, -22.7863
0.1517, -0.0876, 0.0171, -5.3053, -11.0076, -19.3588
0.1780, -0.0742, 0.0100, -3.0000, -11.5573, -16.9008
0.2010, -0.0505, 0.0134, -0.2290, -11.9466, -15.3740
0.2025, -0.0746, 0.0061, -4.1603, -11.6641, -15.9084
0.2139, -0.0593, 0.0061, -5.0305, -11.2977, -19.4580
0.2132, -0.0734, 0.0107, -4.5115, -12.4351, -26.8321
0.2161, -0.0790, 0.0146, -6.6489, -13.1679, -33.1298
0.2344, -0.0993, -0.0078, -7.3206, -13.3359, -41.1527
0.2244, -0.0839, 0.0347, -3.6641, -12.8244, -42.3969
0.2515, -0.0724, 0.0425, 3.2672, -14.7328, -43.3359
0.2664, -0.0473, 0.0605, 10.7481, -17.0229, -41.8702
0.2984, -0.0266, 0.0374, 18.3282, -16.5954, -37.2748
0.3116, -0.0461, 0.0347, 14.8626, -14.6107, -32.7634
0.3038, -0.0656, 0.0364, 6.4046, -10.1298, -31.4122
0.2779, -0.0739, 0.0632, 1.9542, -6.9847, -30.3740
0.2654, -0.0978, 0.0720, -0.1985, -5.1908, -30.2290
0.2501, -0.1152, 0.0713, -3.8702, -2.3206, -33.6336
0.2615, -0.0854, 0.0684, -5.4733, 0.5344, -36.0840
0.2952, -0.0507, 0.0835, 0.3588, 1.5573, -36.9008
0.3074, -0.0588, 0.0840, 6.2901, 1.2672, -33.9695
0.3152, -0.0571, 0.0693, 10.9466, 1.4809, -31.0992
0.3409, -0.0458, 0.0676, 15.9008, 3.4580, -27.6718
0.3450, -0.0485, 0.0667, 13.9466, 3.4580, -24.7939
0.3817, -0.0036, 0.0793, 11.9618, 8.1221, -21.7405
0.4251, -0.0219, 0.0610, 15.6336, 7.9771, -16.3511
0.4302, -0.0309, 0.0366, 13.2137, 12.9466, -12.6947
0.3856, -0.1406, 0.0217, -0.7252, 17.9847, -18.0382
0.3235, -0.1640, 0.0571, -15.7481, 25.3359, -35.0840
0.2862, -0.1757, 0.1072, -23.0840, 29.8244, -47.4046
0.2933, -0.1516, 0.1257, -25.7939, 31.5954, -54.4351
0.2989, -0.0871, 0.1509, -23.6641, 28.1450, -54.0763
0.3802, -0.0390, 0.1125, -11.7710, 25.5802, -43.1298
0.4236, -0.0451, 0.0601, -11.6031, 24.4504, -35.3435
0.4442, -0.0366, 0.0334, -14.0229, 25.4962, -28.9313
0.4581, -0.0600, 0.0256, -14.0916, 25.7328, -28.3893
0.4188, -0.1074, -0.0066, -19.4427, 27.3282, -34.1450
0.3868, -0.1564, -0.0100, -21.2824, 29.4275, -39.4962
0.3743, -0.1606, 0.0037, -20.8092, 26.8626, -46.1069
0.4085, -0.1179, -0.0046, -13.5115, 22.1298, -42.7176
0.4456, -0.1076, -0.0229, -4.6870, 18.1298, -34.6412
0.4598, -0.1125, -0.0342, -0.9237, 15.5496, -26.6412
0.4612, -0.1071, -0.0303, 2.0153, 14.6336, -20.5725
0.4334, -0.1894, -0.0066, 3.2901, 11.2595, -18.0992
0.3992, -0.1638, 0.0286, -2.4046, 9.3511, -24.3511
0.4026, -0.1860, 0.0349, -3.3817, 4.6412, -31.4198
0.4080, -0.1584, 0.0251, -5.8015, 4.0000, -32.7252
0.4385, -0.1291, 0.0310, -4.3206, 2.2290, -29.4122
0.4651, -0.1059, 0.0330, -2.1832, -0.2672, -21.9389
0.4654, -0.0864, 0.0127, -0.9237, -0.3511, -11.2061
0.4749, -0.1098, 0.0161, 1.2824, -1.1985, -10.0229
0.4576, -0.1076, 0.0444, 1.1756, -1.8931, -6.7328
0.4200, -0.1332, 0.0793, -1.2214, -5.0458, -1.7634
0.4029, -0.1489, 0.0474, -0.1450, -7.8702, 0.0534
0.3892, -0.1625, 0.0278, -1.5649, -7.0534, -2.3588
0.3824, -0.1701, 0.0342, -5.8702, -5.4122, -2.7710
0.3614, -0.1557, 0.0452, -7.7786, -6.1603, -3.8244
0.3414, -0.1564, 0.0498, -4.1756, -9.0153, -3.5496
0.3348, -0.1635, 0.0493, -3.4580, -9.9389, -3.0382
0.3438, -0.1513, 0.0374, -4.0153, -9.4962, -1.6260
0.3421, -0.1542, 0.0269, -4.2061, -6.6794, 0.6031
0.3443, -0.1516, 0.0398, -4.5496, -5.7252, 2.9237
0.3494, -0.1376, 0.0281, -8.2901, -5.3664, 7.3053
0.3572, -0.1345, 0.0225, -6.1832, -5.3817, 11.0382
0.3585, -0.1555, 0.0027, -7.0382, -3.1679, 12.7328
0.3621, -0.1464, -0.0020, -7.8244, -1.7863, 9.5649
0.3768, -0.1369, -0.0083, -4.4046, -1.8931, 7.8779
0.3948, -0.1264, -0.0239, -0.7023, -2.4656, 9.4046
0.3914, -0.1186, -0.0056, -0.7710, -1.2901, 12.0382
0.3907, -0.1118, -0.0244, -0.0382, -0.6870, 14.8626
0.3694, -0.1284, 0.0049, 3.0382, -1.0763, 15.5038
0.3350, -0.1496, 0.0178, 1.8473, 0.1450, 14.6107
0.3260, -0.1486, 0.0205, 1.8702, 0.6870, 13.4656
0.3189, -0.1479, 0.0149, 3.1679, 2.9008, 14.4351
0.3199, -0.1503, 0.0278, 1.6794, 4.4580, 15.7099
0.3187, -0.1516, 0.0413, 2.0916, 3.1145, 15.3206
0.3243, -0.1752, 0.0339, 3.8550, 1.3893, 19.1221
0.3401, -0.1791, 0.0002, 3.1221, 1.3740, 16.0687
0.3743, -0.1523, -0.0093, 3.9542, 2.8931, 14.9847
0.4214, -0.1367, -0.0037, 6.0687, 4.4198, 18.1985
0.4341, -0.1010, -0.0227, 3.9160, 4.7176, 19.7328
0.4437, -0.1130, -0.0137, 6.6336, 4.4885, 23.0611
0.4266, -0.1384, -0.0117, 8.4351, 4.5954, 24.5114
0.4166, -0.1408, -0.0215, 6.3511, 4.9084, 22.2519
0.3985, -0.1655, -0.0054, 8.9924, 1.9771, 21.5344
0.3973, -0.1620, 0.0051, 12.4275, -2.9313, 18.3359
0.4107, -0.1513, 0.0110, 16.6336, -7.2748, 13.6336
0.4383, -0.1049, 0.0129, 22.9466, -9.0534, 13.9389
0.4649, -0.0661, 0.0095, 24.1145, -8.8550, 16.1374
0.4830, -0.0383, 0.0190, 21.7176, -6.8321, 16.3053
0.4759, -0.0546, 0.0190, 19.7863, -13.0611, 11.1374
0.4017, -0.1091, 0.0574, 18.1908, -5.1908, 15.2137
0.3692, -0.1127, 0.0859, 19.1985, -10.2443, 15.6489
0.3399, -0.0764, 0.1091, 23.9008, -12.4809, 18.2824
0.3375, -0.0820, 0.0977, 26.2901, -16.9466, 22.5496
0.3611, -0.1047, 0.0649, 21.0763, -17.0916, 23.5573
0.3477, -0.1027, 0.0527, 16.6947, -14.2443, 25.7176
0.3284, -0.1337, 0.0588, 6.2748, -9.1832, 20.2137
0.3353, -0.0688, 0.1013, 1.0382, -3.3282, 21.4656
0.2986, -0.0649, 0.1482, -3.3435, -1.6641, 21.6107
0.2620, -0.1057, 0.1560, -2.6565, -2.5420, 23.1679
0.2383, -0.1420, 0.1396, 2.7481, -4.0992, 27.8855
0.2296, -0.2172, 0.0808, -3.7634, -5.2595, 19.2519
0.2474, -0.1274, 0.0728, -5.4122, -2.4122, 23.8931
0.2847, -0.0883, 0.0874, -8.2214, -5.1756, 25.0687
0.2415, -0.1318, 0.0232, -17.4656, -1.4351, 28.6870
0.2095, -0.1425, 0.0471, -29.8855, 0.3893, 20.0382
0.2230, -0.1374, 0.0803, -22.3588, 1.7939, 14.2901
0.2110, -0.0995, 0.0693, -12.4275, -0.8931, 21.7405
0.2393, -0.0805, 0.0464, -12.7863, 1.9771, 30.1603
0.2625, -0.0576, 0.0520, -16.2290, 3.9008, 31.3053
0.2562, -0.0297, 0.0442, -22.1450, 6.1145, 34.8168
0.2305, -0.0695, 0.0454, -22.4351, 5.7710, 36.9924
0.1888, -0.0539, 0.0222, -26.1832, 6.6718, 33.1221
0.1849, -0.0812, 0.0200, -21.0000, 5.5573, 28.2366
0.1832, -0.0573, 0.0396, -8.9389, 4.7023, 32.3511
0.1939, -0.0361, 0.0122, 1.6794, 1.7710, 26.7176
0.2100, -0.0480, 0.0012, 7.7557, 1.8015, 27.5191
0.2130, -0.0673, -0.0142, 4.0229, 4.1221, 24.2519
0.1888, -0.0795, -0.0105, 0.8321, 6.7252, 25.2595
0.1729, -0.0707, 0.0024, 2.0458, 5.3511, 23.0458
0.1402, -0.0700, 0.0068, 7.3282, 3.5496, 26.2595
0.1426, -0.0964, 0.0247, 7.8015, 2.7634, 25.3053
0.1348, -0.0834, 0.0337, 7.8626, 2.6336, 22.8244
0.1255, -0.0776, 0.0686, 7.9237, 1.7710, 22.7634
0.1409, -0.0854, 0.0754, 8.8244, 0.4656, 22.9389
0.1365, -0.0724, 0.0557, 8.4275, 0.7099, 20.4733
0.1514, -0.0859, 0.0610, 5.4351, 1.8473, 20.3893
0.1631, -0.0536, 0.0320, 6.6336, 3.3893, 20.4886
0.1641, -0.0414, 0.0618, 10.3511, 1.8092, 24.0153
0.1556, -0.0468, 0.0342, 15.5878, 0.2672, 24.0992
0.1395, -0.1027, 0.0188, 10.8550, 1.1679, 23.6641
0.1314, -0.1096, 0.0208, 4.4275, 3.4427, 16.3511
0.1370, -0.1039, 0.0283, -0.1069, 5.6641, 9.5344
0.1487, -0.0651, 0.0259, -0.2748, 4.7328, 9.2672
0.1697, -0.0590, 0.0286, 4.2824, 1.7405, 10.0840
0.1749, -0.0729, -0.0100, 6.9084, 1.3664, 11.5344
0.1507, -0.0930, -0.0022, 5.7710, 2.2977, 10.5420
0.1397, -0.0942, 0.0227, 5.7099, 1.0305, 8.5802
0.1409, -0.1069, 0.0334, 3.5191, 1.3740, 5.4198
0.1402, -0.0942, 0.0286, 0.0153, 2.6031, 1.0687
0.1346, -0.1057, 0.0435, -2.0763, 1.7328, -1.3740
0.1314, -0.1066, 0.0417, -4.1298, 0.3435, -3.7176
0.1439, -0.0866, 0.0515, -2.6107, -1.2672, -3.8626
0.1544, -0.0866, 0.0750, 0.8321, -3.7786, -0.6947
0.1556, -0.0891, 0.0562, 1.5573, -5.1145, -0.6870
0.1387, -0.0969, 0.0725, 1.3053, -6.5802, 0.0458
0.1192, -0.1093, 0.0598, 0.9924, -8.5267, -0.6489
0.1204, -0.1354, 0.0625, 1.1527, -9.6107, -1.9695
0.1133, -0.1237, 0.0679, -2.3359, -9.8626, -7.4351
0.1343, -0.0966, 0.0522, -4.4580, -9.3893, -8.5878
0.1302, -0.0803, 0.0618, -4.7939, -10.8015, -8.6718
0.1451, -0.0493, 0.0649, -3.6107, -12.6183, -4.0763
0.1553, -0.0346, 0.0334, -3.8321, -13.8855, 0.7557
0.1502, -0.0319, 0.0344, -3.6031, -13.4046, 7.2443
0.1407, -0.0392, 0.0388, -3.4122, -14.1145, 15.3817
0.1248, -0.0681, 0.0129, 1.1832, -17.0916, 16.4198
0.1175, -0.0983, -0.0029, 2.7786, -17.5496, 18.6870
0.1077, -0.1408, 0.0107, -5.4046, -16.3893, 12.9389
0.1160, -0.1284, -0.0103, -10.9847, -16.2366, 6.8244
0.1356, -0.1147, 0.0476, -10.7252, -16.3282, 6.1527
0.1561, -0.0764, 0.0530, -9.2061, -15.1374, 4.2366
0.1771, -0.0681, 0.0598, -5.6107, -13.9237, 7.2748
0.1819, -0.0925, 0.0486, -6.6870, -9.1985, 5.1908
0.1673, -0.1096, 0.0310, -14.5725, -3.1603, -4.3206
0.1727, -0.1032, 0.0364, -14.9695, -1.5573, -12.1985
0.1981, -0.0820, 0.0569, -13.0534, -3.0076, -15.6412
0.2183, -0.0644, 0.0625, -8.8855, -4.2748, -17.6260
0.2657, -0.0190, 0.0298, 5.5573, -5.3588, -10.1985
0.2977, -0.0031, 0.0168, 14.7176, -5.4046, -7.9160
0.3216, -0.0317, 0.0320, 18.9008, -7.9847, -7.3817
0.3201, -0.0507, 0.0320, 14.5802, -7.8244, -12.3511
0.3209, -0.0529, -0.0002, 13.3511, -6.0000, -1.9466
0.3353, -0.0703, 0.0444, 18.1374, -9.4962, -11.3969
0.3533, -0.0539, 0.0293, 20.8931, -14.4962, -19.5038
0.3411, -0.0497, 0.0195, 26.8473, -15.8168, -18.5191
0.3670, -0.0334, 0.0288, 27.7176, -18.4122, -22.3817
0.3626, -0.0241, 0.0750, 29.0000, -19.2824, -20.6260
0.3848, -0.0143, 0.0801, 27.8550, -22.7634, -22.7710
0.3726, -0.0876, 0.0425, 6.0229, -17.5725, -36.0992
0.3314, -0.1164, 0.0095, -14.6641, -6.9771, -48.2672
0.3196, -0.1030, -0.0012, -15.8702, -4.8015, -60.5420
0.3199, -0.1140, 0.0352, -14.3511, -3.4885, -64.1985
0.2833, -0.1227, 0.0425, -13.4275, -0.9084, -66.4885
0.2772, -0.1425, 0.0237, -9.0000, 1.3053, -66.3130
0.2921, -0.1074, 0.0447, -10.6336, 4.4351, -67.8015
0.3121, -0.0893, 0.0693, -14.4809, 8.0992, -64.2595
0.2813, -0.0671, 0.0435, -10.5954, 4.5267, -57.2824
0.3043, -0.0964, 0.0381, -15.4122, 6.0076, -58.0611
0.3167, -0.0983, 0.0303, -15.1756, 11.5115, -57.7634
0.3370, -0.1083, 0.0256, -17.3359, 19.4504, -52.8779
0.3487, -0.0673, 0.0398, -20.7863, 24.5191, -52.5725
0.3604, -0.0663, 0.0437, -19.0534, 27.7863, -47.6489
0.3843, -0.0466, 0.0396, -15.5496, 29.1756, -45.5191
0.3904, -0.0297, 0.0386, -10.2519, 28.0611, -37.5496
0.3868, -0.0517, 0.0452, -5.9160, 26.3282, -30.7557
0.3697, -0.1196, 0.0422, -2.1985, 24.8473, -29.8779
0.3555, -0.1335, 0.0229, -9.9389, 26.5344, -35.9237
0.3758, -0.1393, 0.0435, -12.4580, 29.2748, -40.5725
0.3897, -0.1572, 0.0405, -15.8397, 30.2137, -41.7863
0.4127, -0.1064, 0.0393, -19.3817, 29.7328, -39.8779
0.4371, -0.1044, 0.0190, -18.4351, 28.6947, -38.3588
0.4559, -0.1032, 0.0183, -17.5878, 27.2901, -38.6718
0.4537, -0.0910, 0.0027, -15.8473, 26.9847, -33.1603
0.4490, -0.1105, 0.0063, -11.2519, 24.2977, -27.6947
0.4415, -0.1442, -0.0056, -8.0076, 21.9618, -23.6718
0.4297, -0.1640, 0.0171, -6.7252, 19.5038, -21.5344
0.4205, -0.1808, 0.0144, -6.3053, 17.1145, -21.2366
0.4168, -0.1767, 0.0081, -8.4656, 18.3817, -20.2366
0.4180, -0.1694, 0.0056, -7.6947, 17.0458, -19.7710
0.4044, -0.1611, 0.0061, -6.6489, 16.3435, -17.7023
0.3887, -0.1655, 0.0366, -5.4656, 12.8397, -13.8550
0.3765, -0.1577, 0.0444, -1.8397, 7.5496, -11.8168
0.3770, -0.1650, 0.0461, -1.9008, 4.2901, -9.7099
0.3702, -0.1520, 0.0435, -1.4046, 1.4885, -7.6641
0.3782, -0.1415, 0.0232, 1.2366, -0.8779, -3.0763
0.3702, -0.1599, 0.0256, 0.5496, -1.1985, 3.0763
0.3538, -0.1684, 0.0381, -1.5802, -0.5649, 5.1298
0.3401, -0.1879, 0.0449, -2.7710, -2.0687, 3.1450
0.3289, -0.1752, 0.0234, -2.2290, -1.4351, 5.4885
0.3458, -0.1674, 0.0261, -2.8702, 0.2366, 4.9924
0.3494, -0.1530, 0.0139, -2.7252, 1.9847, 6.4885
0.3555, -0.1486, 0.0215, -3.2290, 3.4656, 5.9008
0.3423, -0.1564, 0.0298, -3.7176, 5.1374, 9.5038
0.3201, -0.1752, 0.0181, -1.7252, 3.4962, 8.8397
0.3214, -0.1716, 0.0100, -3.6260, 5.2366, 7.2061
0.3304, -0.1572, 0.0247, -3.5802, 5.9924, 8.0611
0.3297, -0.1557, 0.0286, -1.2595, 4.0840, 11.0305
0.3328, -0.1511, 0.0242, 0.6794, 1.9771, 16.8779
0.3253, -0.1452, 0.0173, 2.4046, 1.0534, 20.4275
0.3255, -0.1689, 0.0110, 3.6718, 0.8321, 20.8855
0.3214, -0.1935, 0.0085, 2.6031, 1.1832, 18.1298
0.3260, -0.1740, 0.0005, 0.3817, 2.1069, 14.9237
0.3365, -0.1498, 0.0105, 2.1527, 1.4351, 15.6260
0.3482, -0.1420, 0.0281, 5.0992, -0.9466, 18.1450
0.3541, -0.1476, 0.0359, 7.7786, -4.3130, 22.0000
0.3731, -0.1530, 0.0166, 9.4809, -7.6794, 24.6336
0.3951, -0.1577, 0.0063, 9.1985, -8.5038, 23.9313
0.4141, -0.1408, -0.0007, 9.9313, -9.9466, 20.9008
0.4276, -0.1154, 0.0137, 10.9389, -11.2366, 21.2901
0.4388, -0.0930, 0.0251, 11.1603, -13.2748, 23.1985
0.4319, -0.0891, 0.0356, 12.6794, -14.3740, 26.8092
0.4129, -0.0932, 0.0264, 14.8397, -16.2366, 32.7863
0.4066, -0.0971, 0.0117, 14.6718, -18.6260, 32.5802
0.3922, -0.1091, 0.0061, 14.2977, -20.1832, 35.4046
0.3887, -0.1093, -0.0198, 15.7023, -20.9008, 38.4809
0.3555, -0.1459, -0.0278, 12.9924, -20.0534, 37.2443
0.3026, -0.2004, -0.0139, 5.1298, -26.7557, 24.0305
0.3184, -0.1462, 0.0022, -1.4809, -25.5420, 23.8779
0.3233, -0.1091, 0.0112, -0.4580, -26.3206, 23.7252
0.3245, -0.0532, 0.0354, -2.9847, -23.6870, 24.0916
0.3482, -0.0497, 0.0315, 6.6107, -25.7710, 28.2443
0.3238, -0.1096, 0.0278, 11.4046, -29.4504, 28.8626
0.3123, -0.0710, 0.0334, 20.6947, -29.4886, 36.1450
0.2903, -0.1115, 0.0459, 19.6641, -28.0153, 33.7252
0.2459, -0.1511, 0.0710, 10.8626, -24.8321, 28.3511
0.2132, -0.1369, 0.0872, 0.9313, -19.5954, 21.6260
0.2086, -0.1740, 0.1235, 4.4122, -17.8855, 22.5114
0.1912, -0.1838, 0.1343, 3.5802, -15.3206, 23.1069
0.2203, -0.1408, 0.1001, -5.6336, -13.1374, 18.3588
0.2845, -0.0937, 0.0764, 3.0229, -11.0229, 22.2214
0.3441, -0.0610, 0.0537, 3.0916, -7.3588, 27.4046
0.3599, -0.0512, 0.0200, -4.1069, -1.9542, 31.4275
0.3301, -0.0085, 0.0674, -7.1832, 3.7099, 31.8397
0.2838, -0.0712, 0.0862, -6.9542, 7.9771, 31.8626
0.2466, -0.1071, 0.1235, -10.8473, 8.8626, 29.8168
0.2232, -0.0915, 0.1160, -15.1832, 14.7099, 26.6031
0.2249, -0.1716, 0.1140, -11.8550, 10.1985, 12.4198
0.2906, -0.0356, 0.0571, -1.8473, 9.6641, 21.2595
0.2989, -0.0388, 0.0374, 2.0534, 10.8015, 25.0916
0.2191, -0.1757, 0.0371, -9.7176, 14.6031, 17.4962
0.1656, -0.1564, 0.0886, -15.5191, 21.8626, 25.0534
0.1426, -0.1540, 0.0940, -15.2824, 20.0611, 15.7710
0.1644, -0.1411, 0.1050, -13.0458, 16.4886, 16.1679
0.1917, -0.0783, 0.0789, -7.9237, 13.4580, 17.7634
0.2291, -0.0871, 0.0559, -1.0687, 8.6260, 15.6412
0.2457, -0.0988, 0.0198, 3.1527, 6.6031, 20.6870
0.2486, -0.0873, 0.0190, 2.1756, 8.6947, 12.5344
0.2379, -0.0854, 0.0103, 7.4198, 7.4885, 12.8473
0.2093, -0.1083, 0.0054, 3.7481, 9.3130, 10.6565
0.1871, -0.1396, 0.0120, 0.8473, 8.7634, 11.2977
0.1856, -0.1208, 0.0154, 6.9924, 6.1374, 7.6107
0.1837, -0.1403, 0.0046, 8.8015, 4.6031, 8.1298
0.1859, -0.1279, -0.0315, 7.3130, 5.9618, 9.6718
0.1729, -0.1330, 0.0046, 6.7863, 5.0687, 11.0229
0.1797, -0.1039, 0.0110, 6.9466, 5.0534, 10.7099
0.1729, -0.1081, 0.0293, 5.3206, 7.2214, 13.1679
0.1622, -0.0922, 0.0364, 1.7405, 8.4046, 11.1221
0.1768, -0.0698, 0.0640, 5.5115, 6.2519, 11.6336
0.1937, -0.0573, 0.0503, 12.4580, 0.9313, 12.3511
0.1976, -0.0663, 0.0122, 13.2519, 0.7634, 11.9542
0.1734, -0.0851, 0.0056, 5.6107, 4.0458, 10.1221
0.1475, -0.0754, 0.0291, 2.7786, 5.6794, 9.5649
0.1358, -0.0871, 0.0540, 2.1069, 4.1298, 8.9084
0.1336, -0.0751, 0.0703, 2.2672, 0.7405, 7.8473
0.1431, -0.0681, 0.0647, 4.4427, -2.0000, 8.4885
0.1417, -0.0849, 0.0471, 1.0458, -2.1145, 6.9618
0.1470, -0.0671, 0.0420, 0.7405, -2.3282, 8.8244
0.1463, -0.0773, 0.0432, 1.5115, -4.3664, 9.2214
0.1219, -0.0949, 0.0276, -0.5573, -4.7786, 7.5115
0.1094, -0.1074, 0.0317, -2.8244, -3.9771, 5.0229
0.1111, -0.0983, 0.0330, -0.0534, -4.6641, 1.3359
0.1192, -0.1140, 0.0212, -1.4351, -4.7939, 0.1756
0.1402, -0.1015, 0.0161, -2.5115, -3.9618, -1.1679
0.1470, -0.0934, 0.0178, -1.7176, -4.3206, -0.8702
0.1524, -0.0927, 0.0208, -1.8321, -4.4122, -1.1985
0.1595, -0.0976, 0.0051, -2.1145, -3.7328, -2.2061
0.1473, -0.1118, 0.0117, -3.3511, -3.0611, -3.4885
0.1461, -0.1100, 0.0024, -3.3359, -3.4046, -6.3511
0.1490, -0.1171, 0.0198, -3.1374, -4.0763, -9.9466
0.1595, -0.0983, 0.0276, -1.6565, -5.1527, -11.0687
0.1658, -0.0969, 0.0378, -0.9542, -6.0992, -12.0229
0.1851, -0.0829, 0.0403, -1.3740, -6.4580, -13.0229
0.1761, -0.0930, 0.0352, -1.4427, -7.4885, -11.7786
0.1666, -0.0937, 0.0442, -1.9313, -8.5649, -12.9466
0.1607, -0.1015, 0.0591, -1.7481, -10.9542, -14.3893
0.1475, -0.1027, 0.0427, -3.5725, -11.9924, -17.2672
0.1548, -0.0891, 0.0430, -4.1603, -12.9084, -17.7099
0.1683, -0.0820, 0.0366, -4.4580, -14.1374, -17.6183
0.1656, -0.0881, 0.0308, -4.6947, -15.6336, -16.5114
0.1627, -0.0932, 0.0039, -7.2061, -16.6641, -18.7252
0.1771, -0.1008, 0.0095, -6.1374, -17.4046, -20.0153
0.1617, -0.1083, 0.0022, -5.0229, -17.1679, -18.6870
0.1541, -0.1379, 0.0127, -4.5267, -17.2214, -18.2061
0.1446, -0.1330, 0.0149, -3.5038, -18.4580, -22.5649
0.1605, -0.1359, 0.0347, -5.5878, -18.6412, -24.7481
0.1917, -0.0995, 0.0371, -3.4351, -20.4198, -22.3053
0.2039, -0.0993, 0.0334, -1.9618, -21.2137, -18.0382
0.2208, -0.1127, 0.0210, -3.3893, -18.4122, -17.9618
0.2374, -0.0912, 0.0037, -6.6336, -14.4427, -21.7557
