SWV ITM Data Console - ITM Port: 0
2C device is ready.
MPU6050 is ready!
Calibration Complete!
Accel Offsets: X = -5674, Y = 614, Z = 11746
Gyro Offsets: X = -726, Y = -452, Z = -158
ax, ay, az, gx, gy, gz
0.2240, -0.0963, 0.1710, 2.0458, 4.2137, 0.1527
0.2255, -0.0939, 0.1622, 1.9924, 4.1527, -0.0916
0.2242, -0.0958, 0.1627, 1.9618, 4.2214, -0.1145
0.2206, -0.0988, 0.1725, 2.0687, 4.1374, -0.0916
0.2218, -0.0946, 0.1693, 2.1374, 3.9389, -0.1908
0.2223, -0.0970, 0.1644, 1.9389, 4.0916, -0.1908
0.2247, -0.0975, 0.1627, 1.9313, 4.7176, -0.3130
0.2267, -0.0951, 0.1681, 2.3893, 4.1145, -2.9389
0.2242, -0.1019, 0.1749, 2.0916, 4.2214, -0.5038
0.2299, -0.0919, 0.1678, 1.8168, 4.3282, -0.0611
0.2277, -0.0973, 0.1620, 2.1069, 4.2824, -0.4122
0.2301, -0.0963, 0.1637, 2.0153, 4.9160, -0.1221
0.2247, -0.0992, 0.1700, 2.1069, 4.2443, -0.1374
0.2316, -0.0970, 0.1561, 1.9847, 4.3130, -0.3130
0.2316, -0.0966, 0.1700, 1.5802, 1.9237, 2.8321
0.2247, -0.0973, 0.1688, 1.8855, 3.6718, -0.2672
0.2260, -0.0951, 0.1635, 2.0305, 3.8550, -0.0305
0.2296, -0.0887, 0.1666, 2.2214, 4.0687, 0.1298
0.2252, -0.0953, 0.1698, 1.8626, 4.5344, 0.2137
0.2274, -0.0939, 0.1718, 2.2672, 4.4962, -0.2672
0.2267, -0.0914, 0.1595, 1.9542, 4.3130, -0.7557
0.2347, -0.0997, 0.1627, 1.9847, 3.5954, 0.8321
0.2255, -0.0956, 0.1664, 2.1298, 4.1756, -0.4809
0.2306, -0.1027, 0.1661, 2.2366, 4.5954, -0.2519
0.2325, -0.0995, 0.1708, 1.9542, 4.9160, -0.1679
0.2274, -0.0897, 0.1688, 2.0000, 4.7252, -0.1374
0.2262, -0.0936, 0.1664, 2.0840, 4.0611, -0.2748
0.2277, -0.0897, 0.1688, 2.1832, 4.0153, -0.7634
0.2286, -0.0970, 0.1693, 2.0611, 4.1756, -0.5267
0.2289, -0.0931, 0.1642, 2.0229, 3.6031, -0.5420
0.2277, -0.0990, 0.1620, 2.0611, 3.6107, -0.4580
0.2308, -0.0997, 0.1659, 2.0305, 3.9695, -0.3206
0.2301, -0.0958, 0.1700, 1.9771, 4.0458, -0.4275
0.2323, -0.0966, 0.1793, 1.9695, 4.0153, -0.2290
0.2272, -0.0936, 0.1754, 2.2061, 4.1069, -0.3817
0.2284, -0.0973, 0.1654, 1.9466, 4.1298, -0.4275
0.2291, -0.0985, 0.1693, 2.0153, 3.8626, -0.1221
0.2208, -0.1002, 0.1674, 2.0382, 3.6870, -0.2901
0.2225, -0.0907, 0.1661, 2.0687, 3.6947, -0.2519
0.2343, -0.0895, 0.1683, 1.9237, 3.5573, -0.2290
0.2301, -0.0912, 0.1718, 2.0153, 3.7176, -0.1298
0.2247, -0.1041, 0.1652, 2.1221, 3.7099, -0.2290
0.2267, -0.0997, 0.1647, 1.9847, 3.8168, -0.0687
0.2328, -0.0941, 0.1666, 2.0611, 4.3053, -0.3053
0.2296, -0.1014, 0.1700, 1.9618, 4.1374, -0.0382
0.2323, -0.0919, 0.1771, 1.9542, 3.6870, -0.1298
0.2308, -0.1022, 0.1632, 2.0992, 3.5954, -0.2748
0.2345, -0.0958, 0.1666, 2.0458, 3.6489, -0.2214
0.2281, -0.1000, 0.1630, 2.1679, 3.8779, -0.1221
0.2267, -0.0946, 0.1674, 1.9389, 4.2672, -0.1374
0.2291, -0.0914, 0.1676, 2.0992, 4.6641, -0.0992
0.2308, -0.0905, 0.1666, 1.9542, 5.0992, -0.0076
0.2369, -0.0936, 0.1674, 1.9237, 4.9313, -0.1069
0.2328, -0.0992, 0.1708, 1.8931, 5.4580, -0.1450
0.2313, -0.0966, 0.1732, 2.0916, 6.5573, -0.1832
0.2379, -0.0963, 0.1715, 1.6183, 8.9237, 2.6489
0.2333, -0.0782, 0.1696, 1.0611, 17.7176, 6.4809
0.2323, -0.0944, 0.1661, 0.6183, 20.2901, 8.7023
0.1949, -0.0934, 0.1583, -7.8855, 25.6641, 10.8397
0.1698, -0.1466, 0.1656, -6.9542, 37.6489, 4.6107
0.3500, -0.2496, 0.2518, -4.0153, 18.2519, -46.4351
0.0492, -0.0316, 0.1537, 18.9771, -5.3130, 0.0992
0.2106, -0.1117, 0.3422, 4.0000, 18.0840, -12.8550
0.2201, -0.0807, 0.3615, 14.1069, -1.2595, -15.5267
0.1642, -0.0660, 0.3903, 13.1298, -1.3893, -9.3740
0.1447, -0.0995, 0.3624, 4.3206, 14.7939, 4.6947
0.0031, -0.0929, 0.2909, 9.8550, 13.7023, -17.4351
0.0907, -0.1593, 0.2836, 4.3130, 10.8855, 1.4733
0.1378, 0.0084, 0.2789, 25.3206, -47.9008, 17.1603
0.2855, -0.1000, 0.4630, 18.3817, -40.6489, 36.8397
0.1075, -0.1654, 0.4215, 22.0382, -47.0153, 14.0382
0.1683, -0.2023, 0.4672, 5.3053, -41.3511, 16.6183
0.1766, -0.1583, 0.3881, -0.0229, -17.9771, 6.0916
0.1564, -0.2045, 0.3558, -10.0305, -3.7710, 8.6870
0.2128, -0.2035, 0.3512, -14.0687, 11.3969, 2.7481
0.2142, -0.1974, 0.3304, -13.1985, 9.2366, -7.8702
0.2125, -0.1735, 0.2926, -19.6870, 8.6489, -15.5878
0.2242, -0.1656, 0.3241, -32.7710, 11.2595, -17.7328
0.2274, -0.1669, 0.3688, -35.1756, -0.5496, -21.4962
0.2040, -0.1984, 0.3397, -41.1298, -8.3664, -20.3359
0.2228, -0.2155, 0.3185, -45.5573, -8.3359, -16.5420
0.2433, -0.2118, 0.2574, -48.6031, -6.0076, -20.6183
0.2804, -0.1879, 0.2592, -44.4198, -5.6031, -26.0840
0.3082, -0.1556, 0.2819, -42.0229, -8.7863, -34.0534
0.3082, -0.1383, 0.2921, -42.4504, -11.3588, -34.3740
0.3112, -0.1639, 0.3177, -40.2366, -22.0153, -32.4656
0.2882, -0.1754, 0.2628, -27.0153, -32.6031, -34.7863
0.2250, -0.1952, 0.1791, -17.7481, -37.2977, -38.0687
0.2416, -0.2555, 0.1464, -17.2366, -27.7863, -29.7786
0.2599, -0.2560, 0.1669, -15.8550, -19.9160, -23.0305
0.2533, -0.2462, 0.1940, -14.4046, -11.4656, -13.2290
0.2511, -0.2621, 0.2018, -12.0000, -3.5038, -11.8855
0.2777, -0.2531, 0.2369, -9.5725, 0.0840, -15.9847
0.2533, -0.2528, 0.1327, -16.3817, 8.1527, -12.1527
0.2614, -0.2596, 0.1354, -22.8473, 8.2977, -20.1221
0.2482, -0.2638, 0.1473, -21.1221, 8.0458, -28.7023
0.2606, -0.2526, 0.1876, -20.6870, 10.1145, -32.3511
0.2933, -0.2284, 0.2120, -17.7481, 16.2824, -32.9313
0.3202, -0.2152, 0.1974, -14.6489, 19.4733, -39.6718
0.3031, -0.2181, 0.1219, -12.6412, 20.7710, -43.8779
0.3107, -0.2194, 0.1237, -9.2977, 11.0076, -48.6794
0.3024, -0.2343, 0.0863, -4.7481, -7.6031, -44.6031
0.3209, -0.2142, 0.0958, -16.7710, -5.8473, -39.1679
0.3434, -0.1803, 0.1776, -29.3206, -3.9466, -34.0000
0.3324, -0.1693, 0.2032, -16.1145, -10.3435, -37.0229
0.3234, -0.1757, 0.1654, 1.8473, -15.8244, -40.9389
0.3322, -0.1569, 0.0770, 13.8855, -12.4504, -45.0382
0.3593, -0.1766, 0.0126, 9.6565, -0.4504, -41.6718
0.3409, -0.2096, -0.0643, 0.5420, 12.5802, -34.5573
0.3182, -0.2269, -0.1293, 11.5115, 25.3053, -31.0687
0.2924, -0.2694, -0.1339, 1.8855, 32.3511, -26.0763
0.2755, -0.2726, -0.0817, -22.4198, 41.5878, -19.1679
0.2972, -0.2189, -0.0052, -30.6183, 38.6336, -22.1298
0.3129, -0.1935, 0.0267, -30.8931, 27.8244, -20.2137
0.3104, -0.1781, -0.0101, -31.3817, 20.9542, -14.4046
0.3239, -0.1664, -0.0536, -30.9695, 19.3511, -11.8855
0.3195, -0.1871, -0.1019, -27.3359, 23.2595, -9.6794
0.3329, -0.1918, -0.1068, -27.3588, 31.3740, -7.4275
0.3256, -0.1891, -0.1085, -27.3969, 38.0076, -6.3435
0.3370, -0.1854, -0.0768, -21.4122, 43.0458, 0.0305
0.3182, -0.1700, -0.0292, -19.5725, 44.5038, 2.4733
0.2990, -0.1920, 0.0543, -14.6794, 43.4580, 7.6794
0.2765, -0.1874, 0.0905, -10.6412, 38.6718, 4.8321
0.2521, -0.2206, 0.0455, -7.4962, 33.1985, 3.5267
0.2152, -0.2640, -0.0665, -4.6336, 31.4427, 3.9389
0.2289, -0.3075, -0.1281, -11.6489, 35.8931, 4.7405
0.2316, -0.3099, -0.1656, -21.9695, 40.7481, 7.3740
0.2545, -0.2931, -0.1903, -21.8626, 43.8626, 7.5115
0.2938, -0.2555, -0.1866, -26.9618, 44.5954, 13.9313
0.3226, -0.2057, -0.1766, -28.3511, 42.2748, 14.2595
0.3636, -0.1539, -0.1193, -14.6565, 30.1908, 11.1908
0.3710, -0.1139, -0.1176, 0.8626, 19.3435, 18.8092
0.3624, -0.1241, -0.0963, 11.8702, 5.8321, 20.4122
0.3234, -0.1542, -0.1210, 24.3588, -7.0000, 23.6718
0.3107, -0.2123, -0.1593, 20.6947, -17.0000, 23.6107
0.3092, -0.2272, -0.1759, 4.0534, -22.5344, 27.9084
0.3190, -0.2162, -0.1578, -9.6489, -29.3740, 28.7405
0.3136, -0.2242, -0.0690, -25.4886, -41.3511, 32.4580
0.2948, -0.2242, 0.0223, -33.0305, -52.8473, 29.9542
0.2469, -0.2201, 0.0599, -31.3969, -54.6031, 28.2519
0.2357, -0.2450, 0.0448, -23.6336, -59.4427, 19.5954
0.2418, -0.2496, -0.0096, -4.7252, -62.6183, 8.7939
0.2870, -0.2450, -0.0392, 8.1069, -62.3282, 2.8168
0.3046, -0.2614, -0.0455, 15.8321, -57.9008, 4.9695
0.2823, -0.2892, 0.0004, 21.4198, -47.3130, 9.1374
0.2491, -0.3163, 0.0636, 21.1374, -29.8397, 9.7786
0.2633, -0.3514, 0.1149, 16.3664, -17.3511, 7.4275
0.3033, -0.3534, 0.1583, 12.5267, -4.6641, 1.8397
0.3583, -0.3217, 0.0795, 10.4580, 3.3130, -3.8244
0.3661, -0.2665, -0.0275, 24.2595, 14.7634, -8.4580
0.3341, -0.2894, -0.0726, 38.3130, 27.8397, -7.7328
0.3163, -0.3302, 0.0287, 41.1145, 36.5344, -3.6107
0.3336, -0.3180, 0.1586, 47.4504, 33.8779, -5.2977
0.3468, -0.3058, 0.2672, 59.0305, 16.4809, -16.2595
0.3092, -0.3082, 0.2643, 66.1603, 4.0229, -23.4962
0.2738, -0.2970, 0.1674, 74.7634, 0.6565, -21.6107
0.2587, -0.3373, 0.1486, 74.9389, -9.0458, -20.3511
0.2528, -0.3556, 0.1422, 76.1908, 10.2824, -16.3435
0.2775, -0.3783, 0.2660, 70.8397, -12.3969, -20.6336
0.2921, -0.3417, 0.3153, 60.8702, 6.9237, -20.3435
0.2142, -0.3258, 0.1974, 17.4580, 2.1756, -4.9084
0.2572, -0.3424, 0.2577, -2.6107, -12.4504, -0.7328
0.2484, -0.3446, 0.2369, 5.1527, -17.3282, -6.3893
0.2311, -0.3256, 0.1444, 17.9695, -8.7405, -12.1527
0.2433, -0.3693, 0.2394, 13.5573, -0.2519, -11.4733
0.2345, -0.3866, 0.3087, 2.2290, 11.6718, -18.0458
0.2301, -0.3593, 0.2948, -8.9084, 17.0153, -17.6565
0.2462, -0.3092, 0.2040, -15.2824, 22.2214, -17.6107
0.2699, -0.2306, 0.1656, -20.5802, 25.4733, -10.0000
0.2914, -0.1810, 0.1844, -26.7176, 29.8855, 2.8321
0.3065, -0.1368, 0.2384, -31.3969, 41.4656, 24.5267
0.2992, -0.1456, 0.3158, -27.7405, 52.1298, 42.0076
0.2823, -0.2108, 0.4266, -22.0763, 55.5649, 46.1221
0.2697, -0.2955, 0.5172, -14.6489, 43.9847, 46.3359
0.2281, -0.2867, 0.4657, -5.7863, 42.9160, 39.7252
0.2113, -0.2963, 0.3573, -3.1298, 47.6641, 36.2748
0.1840, -0.3234, 0.3641, 16.7863, 12.2824, -0.0305
0.1571, -0.3243, 0.2518, 65.0611, -1.4351, -24.8550
0.1537, -0.3341, 0.2762, 4.3664, 44.9313, -7.9695
0.1788, -0.3187, 0.4745, -5.4275, 46.7023, -5.7863
0.2177, -0.2777, 0.4855, 16.7863, 23.2748, -9.8855
0.2118, -0.2496, 0.4030, 42.0992, 19.2672, -12.6947
0.2023, -0.2372, 0.3314, 58.7557, 22.9695, -8.4504
0.2172, -0.2157, 0.2655, 49.6489, 33.8550, 5.4962
0.2057, -0.2069, 0.2260, 46.6031, 43.0000, 17.7481
0.1957, -0.2286, 0.3051, 38.0687, 40.4198, 21.4886
0.0836, -0.3795, 0.4010, 21.9008, 51.8321, 3.3588
0.0890, -0.3851, 0.4530, -5.0305, 47.0000, 5.7099
0.0885, -0.2631, 0.3627, -11.9313, 35.1450, 5.6718
0.1664, -0.2260, 0.2321, 13.7710, 12.4198, -14.5878
0.1659, -0.2223, 0.1383, 8.3817, 13.8321, -2.9313
0.1796, -0.1896, 0.1158, 1.8550, 13.3206, 1.6565
0.1989, -0.1823, 0.1285, 2.6794, 5.2672, 6.0458
0.1918, -0.1813, 0.1276, 7.5573, 0.5496, 4.2519
0.1949, -0.1871, 0.1395, 10.6031, -9.7481, 0.7786
0.1764, -0.2130, 0.1947, 13.9313, -20.2214, -7.6183
0.1334, -0.2404, 0.2513, 5.0840, -19.8855, -9.6565
0.1444, -0.2228, 0.2906, -3.8626, -11.9618, -9.2824
0.1420, -0.1779, 0.3148, -4.0076, -5.9008, 2.0916
0.1862, -0.1444, 0.3309, 9.5878, -15.0611, 3.0534
0.1678, -0.1527, 0.2980, 19.7557, -25.1069, 11.9389
0.1620, -0.1866, 0.3605, 25.4809, -30.5725, 15.4427
0.1676, -0.2213, 0.4845, 28.9771, -30.3511, 18.7481
0.1193, -0.2562, 0.4579, 25.5191, -26.8473, 17.9237
0.0929, -0.3234, 0.4999, 16.0611, -17.3893, 18.0611
0.1022, -0.3060, 0.5216, 2.1603, -19.3282, 14.9160
0.1227, -0.2809, 0.5206, -4.3664, -19.4886, 9.4885
0.1573, -0.2592, 0.5035, -11.1450, -17.2595, 5.1908
0.1307, -0.2731, 0.4725, -24.3435, -13.2290, 11.7481
0.1766, -0.2479, 0.4999, -26.3588, -15.8855, 7.6718
0.1942, -0.2487, 0.4933, -21.0153, -27.5496, 9.7557
0.1866, -0.2335, 0.4259, -14.5420, -28.0534, 14.4962
0.2069, -0.2382, 0.4034, -9.8473, -20.9313, 20.7176
0.2103, -0.2379, 0.3751, -4.4733, -18.1145, 19.9771
0.2257, -0.2487, 0.3746, 1.9389, -21.1298, 20.4733
0.2560, -0.2113, 0.3724, 2.6565, -29.2595, 12.8397
0.2640, -0.1937, 0.3558, 3.7863, -43.8550, 5.0916
0.2975, -0.1635, 0.3207, 1.1221, -67.6718, -8.3435
0.2855, -0.1469, 0.2948, 0.9695, -76.3588, -8.7252
0.2909, -0.1366, 0.2719, 6.4656, -66.8550, -11.2977
0.3151, -0.1459, 0.2240, 6.1756, -51.2824, -12.7557
0.3202, -0.1642, 0.1923, -2.0992, -36.1450, -11.4504
0.3182, -0.2074, 0.1544, -12.3893, -21.4580, -10.5038
0.3109, -0.2345, 0.1251, -25.8931, -16.9313, -3.0153
0.3282, -0.2250, 0.1478, -35.6183, -20.6336, -1.7252
0.3209, -0.2404, 0.1442, -38.6947, -27.5573, 2.8931
0.3109, -0.2462, 0.0824, -31.2366, -31.4504, 2.1298
0.3358, -0.2435, 0.0394, -24.3740, -28.0305, 2.6641
0.3751, -0.2225, 0.0011, -30.3588, -11.3817, 2.3130
0.3942, -0.2203, 0.0031, -38.6641, 7.0840, 3.5573
0.3969, -0.2101, 0.0109, -39.1145, 20.2977, 1.2748
0.3981, -0.2074, 0.0590, -38.0916, 31.7099, -4.1069
0.4020, -0.2147, 0.1005, -39.6870, 40.0534, -6.1450
0.3895, -0.1979, 0.0927, -38.1756, 45.3740, -8.8015
0.3988, -0.1864, 0.1256, -22.7786, 38.4885, -16.0000
0.3793, -0.2052, 0.0844, -7.9313, 28.3740, -12.0840
0.3878, -0.1937, 0.0887, 0.4275, 23.9389, -7.0840
0.3722, -0.1869, 0.0526, 12.7481, 20.1145, -0.5954
0.3619, -0.1879, 0.0492, 23.6794, 17.9771, 3.5878
0.3448, -0.2167, 0.0328, 22.2214, 21.5114, 5.6565
0.3549, -0.1825, 0.0521, 11.4809, 26.9466, 6.6794
0.3842, -0.1263, 0.1107, -0.0992, 29.0611, 5.8015
0.3673, -0.1393, 0.1183, -6.3130, 31.7481, 5.3740
0.3402, -0.1923, 0.0580, -15.3588, 35.4351, 4.1069
0.3036, -0.2125, -0.0050, -12.6641, 40.0763, -1.5344
0.3251, -0.2006, -0.0118, -0.5038, 40.7634, -5.2061
0.3297, -0.1964, -0.0463, 9.8321, 38.8168, -5.2901
0.3202, -0.2045, -0.0878, 15.0076, 38.6947, -2.6183
0.3134, -0.1984, -0.0463, 21.0000, 35.9771, 0.6183
0.2877, -0.1974, -0.0392, 23.3664, 34.4427, 2.8168
0.2767, -0.2269, 0.0199, 19.0687, 34.2061, 7.8626
0.2504, -0.2181, 0.0170, 17.3893, 30.6641, 2.3206
0.2484, -0.2289, -0.0092, 14.4198, 26.6260, 1.7176
0.2628, -0.2325, -0.0687, 11.2519, 25.7710, -9.1756
0.2552, -0.2552, -0.0663, -0.0611, 22.8931, -12.4427
0.2443, -0.2770, -0.0673, -11.5954, 23.7252, -12.9695
0.2448, -0.2382, -0.0233, -19.1527, 24.4275, -13.4427
0.2421, -0.2115, -0.0162, -21.0153, 21.4733, -9.0153
0.2469, -0.2015, -0.0121, -21.0458, 18.7786, -4.9237
0.2523, -0.1857, 0.0414, -18.4427, 15.4580, -2.9237
0.2198, -0.2023, 0.0829, -17.1603, 13.1908, -2.6641
0.2145, -0.2279, 0.0690, -18.3130, 12.5573, 0.3282
0.2406, -0.2350, 0.0319, -15.6107, 12.0382, -1.2061
0.2572, -0.2452, -0.0306, -8.4733, 12.5496, -2.0076
0.2645, -0.2391, -0.0914, 2.3435, 14.2443, -0.3740
0.2736, -0.2567, -0.1171, 8.8473, 15.9389, 0.6794
0.2531, -0.2584, -0.1056, 10.7328, 19.2901, 1.9771
0.2448, -0.2731, -0.0621, 8.9542, 21.3282, 0.7481
0.2433, -0.2699, -0.0074, 8.8473, 20.4656, 0.6870
0.2570, -0.2587, 0.0040, 8.2824, 15.3053, 1.2977
0.2577, -0.2428, -0.0231, 7.2366, 8.8092, 3.9160
0.2667, -0.2301, -0.0470, 9.3359, 2.0992, 6.5954
0.2792, -0.2264, -0.0604, 10.8702, -4.4275, 10.1756
0.2731, -0.2233, -0.0658, 7.0458, -7.4656, 13.1908
0.2684, -0.2164, -0.0431, 5.9924, -8.9924, 15.7099
0.2509, -0.2357, -0.0421, 6.7557, -9.6260, 15.9237
0.2423, -0.2382, -0.0360, 10.0382, -10.0076, 17.9466
0.2269, -0.1923, -0.0358, 6.7328, -8.4122, 22.0229
0.2191, -0.1801, -0.0416, -3.9084, -6.4580, 25.5725
0.2096, -0.2067, -0.0555, -1.1221, -12.8550, 21.5114
0.2203, -0.2374, -0.0665, -12.9313, -13.0840, 28.8244
0.2162, -0.2328, 0.0065, -39.7557, -4.2137, 35.4580
0.2076, -0.1906, 0.1285, -50.4885, 6.2672, 37.5115
0.2281, -0.1381, 0.2262, -46.7023, 7.6870, 35.9618
0.2604, -0.0909, 0.2262, -25.6794, 6.0305, 28.3359
0.2955, -0.1322, 0.0370, -3.4275, 4.3206, 20.8779
0.3356, -0.1886, -0.0629, 9.9924, 8.9771, 21.7405
0.3458, -0.2184, -0.0944, 25.1069, 16.0305, 14.5344
0.3346, -0.2494, -0.0587, 33.8473, 20.6260, 10.1069
0.3051, -0.2618, -0.0038, 39.1832, 21.4656, 0.7634
0.2474, -0.2845, 0.0575, 34.2672, 21.8321, -6.0382
0.1913, -0.2853, 0.0670, 22.6031, 26.9008, -13.6107
0.1866, -0.2755, 0.0599, 11.9008, 26.7634, -19.5191
0.1954, -0.2506, 0.0804, 7.9160, 27.6565, -26.5344
0.2264, -0.2269, 0.1371, 7.4198, 27.5802, -28.2901
0.2362, -0.2003, 0.1669, 22.8550, 23.5191, -25.3664
0.2626, -0.1456, 0.1837, 46.4962, 16.8015, -17.5496
0.2548, -0.1473, 0.1522, 67.4962, 14.9160, -2.8931
0.2360, -0.1390, 0.1210, 76.1221, 13.0458, 8.6870
0.2252, -0.1866, 0.1600, 72.1527, 4.4809, 4.6565
0.1603, -0.2477, 0.2819, 58.8702, -15.6641, 10.9847
0.1798, -0.2330, 0.2548, 52.9771, -6.6794, -6.1145
0.1351, -0.2372, 0.1532, 47.3817, -24.1221, -8.9160
0.2003, -0.2240, 0.1483, 45.1069, -29.4656, -10.0992
0.2003, -0.2013, 0.1215, 25.1985, -20.1832, 2.2748
0.1757, -0.1847, 0.1937, 5.5191, 0.3130, 5.9618
0.1263, -0.2030, 0.3287, -5.9695, 12.0000, 6.0534
0.1068, -0.2318, 0.4777, -10.1603, 18.4198, 1.2672
0.0907, -0.2540, 0.4781, -8.5954, 27.6565, -1.0000
0.1058, -0.2206, 0.3051, -24.8626, 24.2824, 3.2595
0.1512, -0.1664, 0.0726, -44.0458, 34.4275, 11.4733
0.2118, -0.1779, 0.0197, -62.4275, 37.8092, 29.1527
0.2108, -0.2181, 0.0236, -63.9084, 43.0840, 38.5573
0.1793, -0.2533, 0.0819, -86.8931, 49.6794, 44.5038
0.0944, -0.2572, 0.1835, -70.8321, 57.0153, 38.7710
0.0785, -0.2941, 0.2794, -65.5267, 51.8397, 30.7786
0.0074, -0.3304, 0.2321, -84.0840, 81.0305, 31.7328
0.0162, -0.3566, 0.2675, -91.7099, 61.3053, 10.6565
0.0055, -0.2443, 0.3485, 2.9008, 18.4275, 1.0687
-0.0594, -0.2916, 0.2787, 31.9237, 22.2595, -6.4504
-0.0988, -0.3568, 0.3431, 26.2748, 26.4656, -5.5725
-0.0936, -0.3551, 0.4330, 57.9618, -6.6870, -10.2824
-0.0980, -0.3712, 0.3470, 60.9313, -9.4198, -3.4580
-0.0792, -0.3385, 0.3080, 45.6947, 10.9389, 0.2977
-0.0040, -0.2802, 0.2875, 41.1756, 14.7710, 6.5267
0.0697, -0.2242, 0.2238, 44.6260, 14.1221, 3.5954
0.1007, -0.1996, 0.1825, 41.4809, 17.4198, 0.7176
0.1161, -0.2128, 0.1561, 38.4427, 16.7328, 1.0992
0.1232, -0.2103, 0.1388, 37.0763, 16.7405, 0.9160
0.1078, -0.2091, 0.1364, 31.7939, 17.9695, -0.1450
0.0892, -0.2098, 0.2040, 29.9924, 15.2366, -4.6031
0.0739, -0.2057, 0.2670, 30.7710, 5.0153, -10.6107
0.0641, -0.2460, 0.3212, 34.9924, -8.2977, -10.7634
0.0463, -0.2137, 0.3058, 27.4046, 7.2214, -8.3893
0.0612, -0.2147, 0.3451, 7.7099, 9.1374, -1.6336
0.0687, -0.1993, 0.3402, 13.5649, -9.4656, 0.3511
0.0643, -0.2072, 0.2592, 18.4656, -19.1603, 4.0992
0.0558, -0.2372, 0.2101, 14.6107, -16.3511, 3.5954
0.0524, -0.2682, 0.2191, 14.0000, -14.9008, 0.6718
0.0443, -0.2657, 0.1942, 8.8168, -13.5954, -6.2061
0.0782, -0.2213, 0.2101, 3.2595, -10.5344, -8.3053
0.1141, -0.2001, 0.2128, 0.9313, -11.6794, -7.0000
0.1227, -0.1652, 0.2321, 1.0153, -8.6794, -0.7863
0.1168, -0.1779, 0.2401, 2.0687, -7.7405, 1.2214
0.1168, -0.1688, 0.2802, -2.4122, -8.2672, 3.1756
0.1156, -0.1686, 0.2955, 0.7176, -10.8473, -0.1374
0.1163, -0.1576, 0.2999, 1.4656, -11.2443, 0.6260
0.1217, -0.1537, 0.3243, 6.9313, -11.2290, 1.9008
0.1102, -0.1776, 0.2985, 18.4733, -16.9924, 5.0611
0.0868, -0.2103, 0.3156, 28.0153, -22.3817, 4.1603
0.0787, -0.2408, 0.3612, 30.4504, -25.7252, 1.1374
0.0668, -0.2418, 0.4230, 29.3893, -27.3740, -0.0534
0.0494, -0.2355, 0.4884, 33.0382, -32.3282, -1.2137
0.0468, -0.2365, 0.5016, 40.6489, -37.0229, -1.1832
0.0538, -0.2477, 0.4989, 42.1069, -39.8626, -1.0840
0.0763, -0.2540, 0.4772, 25.0916, -37.2137, 2.2901
0.0612, -0.2540, 0.4740, -1.1756, -27.6107, 4.7405
0.0961, -0.2147, 0.5472, -11.1450, -25.7099, 6.9008
0.0914, -0.1949, 0.5944, -8.3206, -30.9313, 2.6565
0.0912, -0.2045, 0.5616, -6.5954, -37.7328, 1.4427
0.1085, -0.1603, 0.4877, -0.3740, -41.8702, -15.6107
0.1530, -0.1864, 0.4352, 4.9313, -57.5725, -21.0763
0.1652, -0.1586, 0.3951, 8.9160, -72.7328, -26.6794
0.2145, -0.1412, 0.3358, 8.3282, -77.2901, -33.1221
0.2401, -0.1344, 0.2887, -0.4275, -66.4504, -28.6794
0.2445, -0.1385, 0.2904, -5.7634, -53.2443, -25.3664
0.2382, -0.1407, 0.2892, -5.0229, -45.8550, -23.1069
0.2396, -0.1434, 0.2914, -6.9466, -40.7863, -20.6565
0.2814, -0.0992, 0.3182, -5.6641, -43.6107, -14.2672
0.2936, -0.0636, 0.3436, -1.6336, -51.0916, -12.1450
0.3195, -0.0502, 0.3632, 5.3817, -62.0153, -31.6260
0.3129, -0.0399, 0.3297, 16.3740, -60.1832, -33.7634
0.3314, -0.0323, 0.2225, 18.1832, -50.6260, -35.7328
0.3549, -0.0441, 0.1373, 10.3893, -33.5191, -27.9313
0.3671, -0.0702, 0.0594, 3.7557, -14.1756, -14.2443
0.3668, -0.1093, 0.0160, -2.4046, -0.5725, -4.0840
0.3673, -0.1581, -0.0177, -17.0382, 7.2061, -2.8015
0.3842, -0.1749, -0.0555, -35.5038, 13.5954, -0.0992
0.4020, -0.1495, -0.0785, -51.1374, 14.5649, 1.6336
0.4169, -0.1107, -0.0511, -56.0458, 17.1908, -2.0382
0.4259, -0.0726, 0.0397, -57.6947, 19.6565, 1.9466
0.4200, -0.0157, 0.1263, -44.4809, 16.3817, -0.8244
0.4078, -0.0145, 0.1434, -27.1679, 13.9160, -0.9084
0.3900, -0.0829, 0.0804, -13.9237, 22.0229, 1.7557
0.3756, -0.1429, 0.0096, -6.1298, 27.1145, 2.8092
0.3859, -0.1808, -0.0455, -2.2748, 24.1298, 13.1603
0.3871, -0.1920, -0.0765, -5.2824, 28.2595, 13.7710
0.3719, -0.1906, -0.0099, -13.7863, 29.5420, 12.2061
0.3539, -0.1801, -0.0011, -13.3817, 26.7939, 8.0534
0.3573, -0.1190, 0.0233, -12.3435, 25.7786, 8.0000
0.3673, -0.0939, 0.0001, -3.3893, 30.1603, 4.5038
0.3588, -0.0980, -0.0599, 14.0076, 31.6183, 1.7481
0.3514, -0.1393, -0.0812, 19.7099, 33.6794, 2.4962
0.3517, -0.1910, -0.1022, 13.2137, 36.7099, 7.5115
0.3409, -0.2006, -0.1212, 7.5191, 37.8321, 4.6489
0.3309, -0.1964, -0.1134, 5.0763, 32.8397, 6.5573
0.3229, -0.1869, -0.0497, 3.9466, 27.1908, 3.1679
0.3180, -0.1525, -0.0123, 1.2977, 24.7634, -2.5878
0.3134, -0.1412, 0.0226, -5.5420, 25.7939, -5.4580
0.2914, -0.1207, 0.0419, -6.2672, 26.7557, -6.1756
0.2997, -0.0941, 0.0270, -5.2748, 30.7176, -5.7863
0.3014, -0.0814, 0.0328, -0.3511, 32.4351, -3.2137
0.2889, -0.1234, 0.0275, 5.2214, 30.8779, 3.3664
0.2709, -0.1627, 0.0018, 9.9389, 28.6641, 1.9313
0.2579, -0.1945, 0.0018, 14.6794, 24.2366, -0.5191
0.2518, -0.2286, 0.0104, 17.5114, 21.2901, -3.0305
0.2521, -0.2045, 0.0336, 9.9924, 19.7634, -5.5725
0.2386, -0.2013, 0.0624, -1.8855, 19.4198, -10.0687
0.2372, -0.1844, 0.0902, -9.4733, 19.3130, -13.5878
0.2548, -0.1593, 0.1007, -7.4351, 15.4656, -14.7099
0.2777, -0.1307, 0.0682, -1.1908, 12.8168, -9.1527
0.2904, -0.1276, 0.0372, 5.1145, 12.2748, -2.0153
0.2992, -0.1490, -0.0026, 8.3511, 11.6870, 2.9847
0.2880, -0.1571, -0.0236, 8.4046, 13.3130, 1.9313
0.2589, -0.2035, -0.0175, 7.3664, 10.4427, 4.5038
0.2509, -0.2067, 0.0021, 7.9771, 9.0611, 2.6412
0.2567, -0.1818, -0.0226, 8.7786, 8.5496, 0.2824
0.2855, -0.1627, -0.0648, 8.8702, 8.4580, 0.1527
0.3148, -0.1556, -0.1151, 5.4504, 9.5725, 4.4275
0.3390, -0.1290, -0.1490, -0.8779, 11.1374, 3.6489
0.3256, -0.1564, -0.1132, -4.3740, 8.5954, 5.5267
0.3224, -0.1293, -0.0970, 1.6031, 4.7252, 8.8015
0.3058, -0.1290, -0.1132, 1.9237, 3.4427, 9.0916
0.2814, -0.1354, -0.1244, 0.3817, 2.9313, 9.4504
0.2609, -0.1205, -0.1110, 2.9695, -1.2137, 8.5191
0.2635, -0.1466, -0.1180, 0.6412, -1.3817, 7.1145
0.2875, -0.1422, -0.1254, -9.6031, 2.0229, 4.2137
0.3004, -0.1183, -0.1224, -19.5420, -1.9847, -2.1145
0.3419, -0.1217, -0.1486, -26.6336, -4.7939, 1.1679
0.3551, -0.0961, -0.1415, -24.8092, -15.5954, -2.0840
0.3385, -0.1102, -0.1417, -21.9237, -24.8550, 3.3130
0.3109, -0.1019, -0.0504, -23.8092, -26.6031, 10.5725
0.2579, -0.1029, 0.0643, -27.6641, -18.7252, -0.2137
0.2523, -0.1232, 0.1442, -37.4275, -13.9542, -8.1450
0.2574, -0.1261, 0.1202, -40.5573, -9.5191, -18.8855
0.2953, -0.1422, 0.0511, -23.0534, -19.4122, -22.2672
0.3607, -0.1349, -0.0289, 5.9008, -42.7939, -43.5420
0.3290, -0.2255, -0.0826, 14.7939, -50.3511, -20.9695
0.3217, -0.2133, -0.0414, 8.0305, -49.2595, -12.7863
0.2560, -0.2252, 0.0712, 0.6031, -45.0153, -12.7405
0.1945, -0.2855, 0.1644, -25.0229, -28.3282, -16.0840
0.2028, -0.2650, 0.2174, -53.5573, -15.1832, -23.8015
0.3073, -0.2111, 0.2167, -46.0305, -1.0458, -43.3206
0.3846, -0.1984, 0.1539, -31.2290, 2.8321, -49.1908
0.4303, -0.2391, 0.1029, -8.5802, 4.0153, -43.2901
0.3854, -0.2963, 0.0807, 8.7786, 2.5725, -34.4046
0.3275, -0.3138, 0.1014, -0.1679, 3.0992, -26.6412
0.3016, -0.2589, 0.2711, -2.9466, -6.7786, -31.0229
0.2870, -0.2125, 0.2892, 0.9924, -15.9847, -34.5115
0.2887, -0.1888, 0.3370, 8.0916, 0.6565, -31.0229
0.3400, -0.2272, 0.4606, 10.2061, 10.8473, -20.1374
0.3431, -0.2721, 0.4501, 29.3282, 15.2519, -6.7710
0.3353, -0.3478, 0.4191, 45.6947, 15.0458, -4.1450
0.2999, -0.3832, 0.3944, 53.6489, 22.6183, 1.2290
0.2367, -0.4120, 0.2872, 33.5038, 33.5344, 12.7939
0.1884, -0.4557, 0.1918, 9.4198, 47.7557, 17.9160
0.1603, -0.4872, 0.1371, -15.6412, 71.3664, 15.5954
0.1508, -0.4752, 0.2235, -48.5954, 94.8015, 17.0229
0.1656, -0.4415, 0.3785, -72.4504, 109.2595, 44.2748
0.2069, -0.3590, 0.4948, -55.1221, 88.1908, 32.2137
0.2335, -0.2584, 0.5436, 22.7099, 32.7328, 8.9008
0.2684, -0.2260, 0.3771, 91.3969, 17.4733, 5.7328
0.2623, -0.2662, 0.2245, 77.7557, 22.1221, 15.3359
0.2526, -0.2770, 0.2201, 67.0458, 15.7252, 21.5038
0.1862, -0.3312, 0.2579, 47.9542, 13.4962, 28.8550
0.1552, -0.3434, 0.3029, 13.0076, 28.1221, 20.7939
0.1561, -0.3197, 0.3439, -13.8397, 36.5802, 15.5954
0.1906, -0.2516, 0.3644, -20.6031, 34.0382, 12.8092
0.1993, -0.2101, 0.3529, -13.0687, 32.4885, 16.1985
0.2030, -0.2037, 0.3170, -5.3511, 29.9618, 19.0916
0.1930, -0.2365, 0.2972, 7.3511, 23.5725, 20.8015
0.1776, -0.2745, 0.3356, 28.0153, 6.3664, 22.1069
0.1823, -0.2823, 0.3485, 36.9237, -5.4198, 17.3969
0.1598, -0.2963, 0.3605, 29.3740, -5.9924, 14.3359
0.1610, -0.2831, 0.3346, 24.4122, -4.5573, 10.6718
0.1791, -0.2347, 0.3033, 31.8626, 2.5191, 4.5725
0.2191, -0.2220, 0.2936, 40.7863, 14.0229, 7.4122
0.2133, -0.1908, 0.2394, 14.4656, 34.2214, 13.9847
0.2474, -0.1471, 0.2863, 4.9771, 29.0611, 9.4580
0.2555, -0.1639, 0.2980, 14.8168, 5.9084, 7.9237
0.1920, -0.2311, 0.2775, 11.1756, 0.4351, 0.8626
0.1761, -0.2662, 0.3422, -1.4733, 4.5191, -4.5573
0.1920, -0.2257, 0.3063, -1.6260, 2.2214, -3.6260
0.1879, -0.2096, 0.2469, 5.0534, -2.3664, -5.0382
0.1691, -0.2325, 0.1840, 10.7099, -7.3435, -3.7557
0.1727, -0.2208, 0.2003, 11.0763, -7.7176, -2.0992
0.1622, -0.2372, 0.2294, 7.8473, -4.8015, 2.0458
0.1632, -0.2306, 0.2767, 5.5191, -4.2977, 3.7939
0.1979, -0.2054, 0.3470, 10.5191, -12.6565, -2.3053
0.1908, -0.2057, 0.3275, 15.2901, -19.8550, -3.6183
0.2194, -0.1671, 0.3737, 13.7786, -24.5038, 1.7176
0.2074, -0.1652, 0.3480, 17.9008, -25.1832, 0.8626
0.1742, -0.2050, 0.3380, 18.7328, -19.2137, 1.9542
0.1744, -0.2194, 0.3846, 14.3969, -9.6870, 10.2214
0.1844, -0.2137, 0.4574, 12.6718, -6.7252, 11.0763
0.1737, -0.2174, 0.5060, 14.6336, -9.0763, 8.8397
0.1527, -0.2321, 0.5206, 15.0763, -13.0000, 12.1527
0.1539, -0.2382, 0.5006, 13.0611, -13.0229, 8.9695
0.1478, -0.2428, 0.5101, 11.8015, -11.9389, 6.7786
0.1346, -0.2284, 0.5087, 16.9618, -10.2214, 0.0382
0.1434, -0.1881, 0.4962, 20.6718, -7.8779, -2.3359
0.1508, -0.1698, 0.4742, 18.9313, -2.6565, -8.1221
0.1910, -0.1500, 0.4635, 14.4046, -2.9389, -13.8702
0.1857, -0.1200, 0.4247, 24.0000, -7.4885, -17.5267
0.2218, -0.0873, 0.4003, 35.9313, -16.8550, -16.8702
0.2242, -0.0914, 0.3146, 42.9389, -26.9389, -16.7023
0.2247, -0.0917, 0.2770, 43.7710, -28.3893, -18.0534
0.1991, -0.1681, 0.1996, 43.4733, -28.0763, -21.4198
0.2076, -0.1725, 0.2216, 37.6641, -23.4809, -23.9160
0.2291, -0.1720, 0.2787, 22.8473, -20.1069, -21.8168
0.2301, -0.1385, 0.2931, 12.5802, -13.8626, -20.0611
0.2540, -0.1222, 0.2811, -3.1145, -11.6260, -19.8855
0.2623, -0.1449, 0.2653, -4.6412, -6.3588, -31.0076
0.2682, -0.1405, 0.2977, -8.5496, -9.5267, -27.5496
0.2770, -0.1263, 0.2682, -14.0763, -18.4122, -30.6031
0.2850, -0.1097, 0.2667, -9.5649, -21.5420, -28.9008
0.3016, -0.1075, 0.2289, 3.6718, -26.6947, -21.9466
0.2894, -0.1534, 0.1876, 12.7786, -23.5420, -20.2214
0.2728, -0.1610, 0.1688, 18.7481, -15.5496, -15.5267
0.2804, -0.1190, 0.1605, 22.9924, -9.7252, -17.7252
0.3048, -0.0736, 0.1222, 14.5954, -6.1603, -16.3511
0.3497, -0.0248, 0.1486, 3.1069, 1.9313, -19.7863
0.3673, 0.0060, 0.1810, -4.6183, 0.4122, -10.2901
0.3807, 0.0458, 0.1708, -3.5038, -0.1908, -4.6947
0.3751, -0.0128, 0.1337, 8.9389, 0.4046, -0.6565
0.3622, -0.0778, 0.0927, 24.6412, 3.8855, -4.1985
0.3551, -0.1661, 0.0377, 21.8779, 10.6718, -7.3359
0.3461, -0.2030, 0.0116, -4.6794, 7.7634, -9.3435
0.3431, -0.1974, 0.0050, -33.9389, -0.0229, -2.0611
0.3617, -0.1364, -0.0157, -47.5115, -9.8855, 6.0687
0.3524, -0.0851, -0.0031, -48.0458, -14.2061, 16.0000
0.3734, -0.0692, -0.0050, -38.8626, -9.3740, 23.8855
0.4010, -0.0175, -0.0043, -21.4198, 0.7176, 28.5878
0.4315, 0.0546, 0.0201, 10.8550, 3.9237, 25.3664
0.4266, 0.0848, 0.0602, 37.5267, 2.1756, 22.5878
0.4113, 0.1024, 0.0607, 48.4427, 9.5573, 22.4886
0.3756, 0.0399, -0.0145, 43.3130, 23.7099, 17.2672
0.3922, -0.0138, -0.0338, 44.0992, 29.6107, 7.6794
0.3907, -0.0719, -0.1320, 31.7481, 42.6794, 2.9924
0.3978, -0.0714, -0.1664, 12.9695, 52.8473, -4.5420
0.3807, -0.0626, -0.1779, -0.8702, 57.6183, -11.5344
0.3766, -0.0551, -0.0963, -6.1832, 55.0153, -12.9389
0.3685, -0.0455, -0.1112, -13.3206, 53.5649, -4.7252
0.3612, -0.0284, -0.0819, -14.2748, 46.0687, 4.6718
0.3488, -0.0377, -0.0485, -11.0687, 34.0840, 8.9160
0.3138, -0.0753, -0.0189, -9.7557, 15.4275, 10.9618
0.2762, -0.0983, -0.0128, -12.6031, 3.6336, 7.6107
0.2758, -0.1219, -0.0233, -12.9084, 2.1679, 7.0840
0.2897, -0.0900, -0.0343, -14.9847, 3.5344, 4.2443
0.3085, -0.0255, -0.0074, -6.6718, 7.7405, 6.6336
0.3014, -0.0258, 0.0016, 4.6870, 11.4809, 12.0763
0.2816, -0.0726, 0.0104, 13.9695, 16.6031, 15.9618
0.2394, -0.1207, 0.0446, 12.3893, 25.3435, 13.8397
0.2211, -0.1249, 0.0648, 10.4733, 39.0153, 6.6412
0.2306, -0.0765, 0.0778, 8.5115, 45.6641, 0.0840
0.2399, -0.0101, 0.1193, 11.2595, 47.8015, -0.4885
0.2448, -0.0038, 0.1146, 11.9924, 45.7863, 2.5725
0.2443, 0.0048, 0.1110, 5.4809, 43.2214, 3.1603
0.2491, -0.0414, 0.0443, 1.6565, 37.0076, 5.5191
0.2550, -0.0736, 0.0099, 6.3893, 33.7863, 2.0840
0.2316, -0.1078, -0.0272, 10.1679, 31.4733, -2.6947
0.2289, -0.1117, -0.0179, 16.4656, 30.5267, -4.6336
0.2430, -0.0577, -0.0238, 11.3053, 30.0305, -7.1908
0.2443, -0.0216, -0.0226, 6.3588, 30.6183, -7.2901
0.2306, 0.0138, -0.0018, 4.2824, 28.6565, -3.9924
0.1942, -0.0045, 0.0057, 3.7481, 23.0382, 2.3969
0.1810, -0.0060, -0.0148, 3.7786, 18.4733, 7.5344
0.1769, -0.0101, -0.0653, 3.0000, 14.7786, 7.9847
0.1588, -0.0404, -0.0763, 3.0534, 8.8092, 10.5496
0.1642, -0.0736, -0.0648, 5.2748, 1.3435, 9.2748
0.1891, -0.1041, -0.0707, 0.6260, -7.8473, 4.8397
0.1857, -0.0511, -0.1176, 11.9542, -24.4733, -12.1679
0.2045, -0.0536, -0.0607, 18.7023, -27.2443, 0.1221
0.1996, -0.0179, -0.0819, 17.2137, -35.3130, -7.1298
0.1940, -0.0197, -0.0865, 12.4656, -42.9389, -5.0076
0.2003, 0.0123, -0.1322, -3.3664, -32.7405, -5.1832
0.2238, 0.1254, -0.1005, 6.1756, -9.8168, -2.5649
0.2675, 0.1332, -0.0724, 27.4580, -1.7557, 2.7634
0.3060, 0.0936, -0.0643, 41.9313, -0.4733, 11.3053
0.3077, 0.0399, -0.1066, 45.4580, -1.4885, 16.2824
0.2887, -0.0221, -0.1151, 38.3893, -6.4885, 15.5802
0.2540, -0.0497, -0.1161, 19.4733, -3.3817, 9.7786
0.2311, -0.0070, -0.0575, 3.4809, 0.4809, 1.2214
0.2047, 0.0277, 0.0272, 4.7710, -2.2824, -5.5573
0.1571, 0.0582, 0.1393, 6.5267, -8.2443, -11.0382
0.1464, 0.1049, 0.1971, 23.9618, -11.4198, -22.5344
0.2101, 0.1034, 0.1881, 51.1450, -6.6260, -14.1069
0.2628, 0.0450, 0.1229, 65.7099, -8.5725, -2.9237
0.2731, -0.0226, 0.0580, 64.6260, -8.6489, 9.4580
0.2572, -0.0121, 0.0206, 63.7405, -2.2595, 2.0000
0.2030, 0.0333, 0.0426, 58.2443, 11.7863, -4.5573
0.1898, 0.0577, 0.2240, 43.6565, -1.1374, -14.0305
0.2416, 0.1715, 0.3080, 36.9618, 22.6489, -19.5954
0.2465, 0.2072, 0.4445, 42.9466, 25.5344, -12.4198
0.2784, 0.3011, 0.4071, 36.9008, 1.2901, 2.4046
0.2919, 0.2928, 0.4095, 17.6336, -27.5725, 15.0153
0.2899, 0.2096, 0.2814, 14.4122, -44.0763, 33.5191
0.2699, 0.1136, 0.1964, 21.7634, -65.0229, 49.9008
0.2018, 0.0143, 0.0629, 34.5267, -49.6565, 47.6794
0.1849, -0.0760, 0.3353, 1.7557, -83.1679, 41.9695
0.2045, -0.0243, 0.3409, -0.2290, -58.1374, 24.3053
0.2543, -0.0375, 0.4410, -18.0076, -82.3893, 22.9084
0.3214, 0.0616, 0.3917, -26.9237, -84.5573, 21.9771
0.3507, 0.0658, 0.5082, -24.0687, -111.8168, 26.3664
0.3453, 0.0841, 0.4110, 5.0382, -102.4351, 32.5496
0.3639, 0.0167, 0.2133, 25.5420, -93.1832, 41.5191
0.3451, -0.1071, 0.0543, 10.8931, -85.6870, 44.9008
0.3273, -0.1517, -0.0367, -28.4733, -59.2748, 35.4427
0.3409, -0.1747, 0.1461, -76.0611, -38.7710, 18.7023
0.3588, -0.0658, 0.2894, -102.8092, -25.3053, 1.1145
0.4799, 0.0648, 0.4906, -102.8931, -26.1221, -3.8931
0.5746, 0.1290, 0.5863, -76.0840, -36.5420, -0.6489
0.5836, 0.1410, 0.5629, -40.4656, -42.4733, 21.6947
0.5905, 0.0428, 0.5123, -7.4427, -44.3130, 21.8473
0.4669, 0.0126, 0.2882, -10.3511, -46.1832, 31.1221
0.5612, 0.0487, 0.3251, -32.2977, -28.3206, 23.6565
0.4928, -0.1381, 0.2069, -24.8626, -22.8779, 11.3664
0.4335, 0.0123, 0.1818, -19.4504, -28.9771, 16.0687
0.6317, -0.0529, 0.3036, -47.7939, -34.3893, 40.2214
0.7101, -0.0436, 0.3973, -55.8702, -20.6489, 37.1145
0.7130, -0.0509, 0.4467, -37.0992, -30.3664, 32.6183
0.6393, -0.0651, 0.4198, -27.6565, -29.3206, 30.8931
0.6666, -0.0670, 0.4615, -8.5573, -17.5038, 21.4122
0.6237, -0.1300, 0.4269, -0.1756, -15.7328, 24.3588
0.6112, -0.0856, 0.3724, 10.8092, -4.2672, 18.6947
0.6129, -0.1110, 0.3243, 16.1832, 10.2519, 10.3359
0.6102, -0.1215, 0.3326, 27.4580, 10.9313, 2.6947
0.6381, -0.1024, 0.3463, 32.8244, 10.0076, 0.6794
0.6217, -0.0902, 0.3317, 20.3969, 14.0534, 6.2214
0.6263, -0.0868, 0.3641, 12.5115, 11.1221, 7.9924
0.6281, -0.0621, 0.3590, 14.1450, 6.9466, -1.1527
0.6185, -0.0746, 0.3146, 7.9618, 1.1985, -3.5573
0.6019, -0.0865, 0.2819, 2.8473, -3.5878, -0.3740
0.5914, -0.0856, 0.2533, 2.9847, -5.3206, 2.4122
0.5834, -0.0968, 0.2379, 4.1985, -4.7328, 7.5573
0.5939, -0.0775, 0.2657, 17.2519, 5.9313, 4.6336
0.4965, -0.0277, 0.1862, 31.8626, 19.0458, -4.9618
0.5919, -0.0748, 0.3346, 26.3053, 24.4962, -5.3359
0.4969, -0.1466, 0.2697, 21.9695, 37.1908, 18.4656
0.5804, -0.1083, 0.3561, 4.6947, 41.0153, 15.9389
0.5814, -0.1022, 0.3971, -2.1679, 39.0229, 15.7557
0.4586, -0.6354, 0.3641, 19.9160, 28.0687, -28.9084
0.7975, 0.4296, 0.2262, 18.2366, 19.0305, -14.7786
0.7648, -0.1207, 0.4052, -7.9389, 66.2901, -31.1145
0.5385, -0.1046, 0.4186, -11.6336, 50.4046, -3.1145
0.5521, -0.1058, 0.3966, 0.2214, 39.2672, -1.9695
0.6000, -0.0682, 0.3973, -8.7863, 43.1069, -1.0916
0.5236, -0.0487, 0.4344, -21.9847, 42.4198, 5.5802
0.5511, -0.0433, 0.4735, -13.0534, 34.4351, 11.7099
0.5204, -0.0546, 0.5050, -8.6870, 31.6260, 13.5725
0.5204, -0.0602, 0.4872, -15.8626, 35.0000, 17.8626
0.5026, -0.0385, 0.4142, -8.9695, 44.6870, 6.3435
0.5277, -0.0135, 0.3907, 3.6031, 27.0611, 18.7863
0.4706, -0.1031, 0.3485, 11.4733, 21.8626, 15.8473
0.5099, -0.0677, 0.3429, 3.1756, 22.8168, 13.4580
0.4928, -0.0426, 0.3580, -10.4351, 23.4122, 5.5115
0.4908, -0.0338, 0.3488, -11.1527, 17.6565, -1.0840
0.4845, -0.0267, 0.3746, -6.2672, 8.7328, -15.5573
0.4750, -0.0433, 0.3575, -3.1145, 5.1603, -22.4275
0.4821, -0.0045, 0.3441, -7.1985, 4.0611, -35.4427
0.5216, 0.0680, 0.3363, 1.1756, 3.9237, -44.1527
0.5292, 0.0919, 0.2860, -1.4733, -4.2977, -43.9313
0.5399, 0.1136, 0.2472, -8.4656, -10.1832, -37.4351
0.5187, 0.0814, 0.1774, -10.7252, -16.8092, -24.3053
0.4896, 0.0333, 0.1022, -11.4275, -22.0840, -12.8779
0.4425, -0.0560, 0.0377, -11.2977, -17.5802, -7.0687
0.3937, -0.1730, 0.0433, -13.7634, -11.9618, -12.8473
0.3646, -0.2101, 0.0695, -15.0305, -8.1374, -21.9924
0.3820, -0.1937, 0.0980, -19.7405, -4.6565, -24.9542
0.4003, -0.1444, 0.1051, -19.3511, -1.1985, -25.3053
0.4249, -0.1012, 0.0917, -14.4275, 9.7786, -23.1908
0.4335, -0.0641, 0.0631, -6.2595, 12.6031, -22.1603
0.4303, -0.0455, 0.0153, 0.6718, 13.7863, -18.3130
0.4457, -0.0121, 0.0074, 0.8702, 12.9466, -9.5191
0.4620, -0.0118, -0.0389, -1.2824, 16.3969, 2.6031
0.4781, 0.0150, -0.0387, 2.7634, 19.1985, 11.3282
0.4896, 0.0363, -0.0233, 6.4122, 22.1298, 17.7786
0.4645, 0.0182, 0.0160, -1.4962, 26.2901, 12.4580
0.4608, 0.0363, 0.0770, -11.9160, 29.9160, 9.2214
0.4510, 0.0477, 0.1268, -11.5802, 24.8702, 3.8855
0.4305, 0.0272, 0.0814, -3.0153, 22.9771, 3.9237
0.4403, 0.0299, 0.0402, 6.2901, 23.3206, -0.5725
0.4745, 0.0436, -0.0594, 15.6260, 24.9924, -3.2443
0.4545, 0.0089, -0.0870, 19.8855, 27.7328, 0.0916
0.4271, -0.0275, -0.0536, 10.9847, 24.8779, 12.1679
0.4105, -0.0616, 0.0216, 5.8015, 25.0076, 11.9466
0.3898, -0.0692, 0.0856, -2.0382, 21.5573, 5.6641
0.3800, -0.0887, 0.0909, -7.8473, 15.4427, -1.5725
0.3978, -0.1115, 0.0123, -12.0458, 9.3588, -13.0305
0.4105, -0.1205, -0.0546, -13.0687, 12.0000, -17.0305
0.4215, -0.1193, -0.0602, -17.8855, 16.0229, -21.5344
0.4271, -0.1027, -0.0189, -21.4656, 20.8855, -16.0458
0.4323, -0.0519, 0.0397, -13.6412, 21.0763, -7.9618
0.4159, -0.0634, 0.1046, -8.5191, 16.0534, -2.2748
0.4078, -0.0814, 0.1107, -2.0229, 11.8473, -0.7023
0.4100, -0.0966, 0.0543, 2.4427, 8.2290, -3.7099
0.4203, -0.1063, 0.0243, 1.8855, 8.3817, -5.3817
0.4135, -0.1185, 0.0223, 1.2519, 10.4427, -2.8702
0.3961, -0.1202, 0.0458, -2.4885, 8.6183, -0.4351
0.3805, -0.1398, 0.0382, -3.4733, 7.3969, 1.0763
0.3629, -0.1693, 0.0656, -3.4733, 5.0229, 0.2290
0.3661, -0.1674, 0.0914, -9.4580, 3.9084, -4.4275
0.3629, -0.1852, 0.1241, -19.7252, 2.8244, -2.2519
0.3641, -0.1693, 0.1342, -24.6794, 3.1908, -1.5344
0.3915, -0.1285, 0.1173, -23.0153, 0.6031, -4.5878
0.3947, -0.1288, 0.0956, -23.1832, 0.7786, -2.7176
0.3956, -0.0936, 0.0824, -20.0916, 1.0458, -2.2901
0.3905, -0.0929, 0.1014, -14.3053, 0.3053, -0.0153
0.3895, -0.0970, 0.1178, -8.4275, -0.7481, 1.2214
0.3939, -0.1095, 0.1405, -6.3130, -0.6870, 2.4122
0.3802, -0.1371, 0.1261, -4.4504, 1.1298, 2.2977
0.3944, -0.1337, 0.1215, -1.9847, 3.5954, 3.0763
0.3998, -0.1429, 0.1461, -0.3664, 4.7023, 3.7863
0.3905, -0.1569, 0.1244, -1.6107, 6.6336, 2.7557
0.3959, -0.1412, 0.1298, -0.2901, 9.2672, -0.8397
0.3973, -0.1305, 0.1464, 2.7557, 8.7252, -2.2137
0.4034, -0.1361, 0.1239, 3.0763, 8.3740, -3.7176
0.4115, -0.1676, 0.1053, 3.1908, 8.2901, -2.9542
0.4113, -0.1720, 0.1031, 2.0992, 9.1679, -2.5725
0.4061, -0.1669, 0.1378, -2.5267, 10.0305, -2.6183
0.3995, -0.1393, 0.1635, -1.5496, 10.0153, -2.2137
0.3861, -0.1410, 0.1954, 0.1374, 10.1221, -0.8015
0.3802, -0.1334, 0.1971, 1.3664, 11.0763, -0.3969
0.3820, -0.1356, 0.2054, 3.9847, 10.2443, -1.3435
0.3929, -0.1556, 0.1842, 4.6794, 7.9237, -0.7786
0.3998, -0.1483, 0.1508, 5.3053, 7.2672, -0.9924
0.3969, -0.1693, 0.1256, 2.5115, 7.0992, -1.4809
0.4012, -0.1556, 0.1127, -0.2901, 7.7252, -2.2901
0.4044, -0.1442, 0.1324, 0.5191, 8.5573, -1.4198
0.4120, -0.1459, 0.1481, 1.0305, 8.2366, -0.6107
0.4113, -0.1339, 0.1571, 2.3282, 7.9389, 0.8702
0.4054, -0.1456, 0.1273, 2.5038, 7.6107, 3.0916
0.3993, -0.1473, 0.0890, 2.3969, 7.7710, 4.4504
0.3842, -0.1564, 0.0580, 1.4809, 8.6565, 5.3969
0.3800, -0.1508, 0.0538, 2.7939, 8.6870, 3.9084
0.3781, -0.1442, 0.0531, 3.9618, 7.9924, 2.6641
0.3810, -0.1251, 0.0304, 7.2443, 7.0840, 3.3130
0.3817, -0.1259, 0.0302, 9.0763, 5.9237, 3.4504
0.3698, -0.1503, 0.0255, 8.6336, 5.0458, 3.5191
0.3619, -0.1566, 0.0111, 8.2901, 5.1527, 4.9313
0.3673, -0.1249, 0.0135, 9.8626, 3.9542, 5.0687
0.3622, -0.1132, 0.0170, 12.0687, 2.1756, 6.0076
0.3754, -0.1195, -0.0087, 13.1603, 0.6947, 5.8931
0.3800, -0.1237, -0.0231, 10.6336, 2.7863, 7.2977
0.3749, -0.1195, -0.0199, 4.5191, 5.1908, 6.6412
0.3751, -0.1056, -0.0011, 1.0687, 5.3893, 6.1985
0.3688, -0.0990, 0.0150, 0.1145, 3.0687, 4.3282
0.3829, -0.0885, 0.0031, 3.4198, 1.3740, 1.8397
0.3744, -0.1005, -0.0248, 3.6565, 1.9542, -0.5802
0.3971, -0.1112, -0.0487, 3.0916, 4.6794, -1.9618
0.4142, -0.0927, -0.0802, -0.0229, 10.1679, -4.1679
0.4032, -0.0760, -0.0316, 7.0076, 14.7405, 3.4351
0.3756, -0.0721, 0.0206, 8.7099, 17.0153, 3.2443
0.3444, -0.1112, 0.0646, -2.5420, 16.2672, 2.3282
0.3429, -0.0951, 0.0985, -10.5954, 9.0611, 2.3359
0.3629, -0.0621, 0.0817, -14.2595, -0.6641, 2.3969
0.3583, -0.0773, 0.0538, -10.0840, -9.2824, 3.8702
0.3929, -0.0970, 0.0604, -4.8168, -5.5267, -0.6718
0.3905, -0.1381, -0.0389, 4.4580, 6.0534, 2.1985
0.4401, -0.1283, -0.0839, 8.0153, 17.9313, 1.1679
0.4491, -0.0536, 0.0043, 2.8626, 24.3282, -0.7252
0.4274, -0.0433, 0.1569, -0.3282, 19.2443, 0.2443
0.4117, -0.0446, 0.2054, -4.2901, 11.0229, 3.2290
0.3705, -0.0717, 0.1779, -2.7176, 2.9847, 8.5420
0.3683, -0.1046, 0.0780, 7.5038, 2.4885, 6.2366
0.3805, -0.1173, 0.0658, 12.0458, 7.2290, 0.2901
0.3925, -0.1451, 0.1617, 14.4580, 9.4122, 1.7786
0.4005, -0.1593, 0.2340, 18.1832, 16.6641, 8.9237
0.3685, -0.1149, 0.2955, 24.5420, 17.4427, 12.2137
0.3329, -0.1154, 0.2875, 25.7863, 16.7023, 7.8550
0.3190, -0.0829, 0.2716, 23.5802, 14.2748, -2.3893
0.3351, -0.0607, 0.2867, 18.2672, 10.6947, -10.3282
0.3683, -0.0089, 0.3070, 18.0611, -1.9771, -12.7099
0.4071, -0.0143, 0.2809, 29.6489, -16.8397, -10.5344
0.4174, -0.0958, 0.1752, 45.3053, -19.4351, 3.9084
0.3934, -0.1793, 0.1088, 51.5878, -15.2519, 7.0076
0.3678, -0.2040, 0.0905, 33.9008, -3.1069, 5.0611
0.3317, -0.1605, 0.1461, 12.1298, 8.7328, -5.2290
0.3241, -0.0490, 0.2487, -5.7252, 12.2519, -10.7939
0.3888, 0.1056, 0.4235, -1.2519, 0.8015, -10.8397
0.3859, 0.1019, 0.4296, 21.1069, -13.7023, -0.5573
0.3712, -0.0045, 0.3676, 32.1069, -28.2366, 5.8855
0.3441, -0.1234, 0.2982, 39.2061, -34.1221, 7.1298
0.3314, -0.2196, 0.2721, 43.7939, -32.1527, -3.5954
0.3260, -0.2411, 0.2323, 37.2824, -24.8244, -7.1679
0.3461, -0.1818, 0.1654, 22.2366, -18.7634, -10.8168
0.3732, -0.1163, 0.1161, 8.6718, -7.5496, -12.3511
0.3722, -0.0558, 0.1503, -11.1985, -4.6183, -8.8855
0.3861, -0.0072, 0.3346, -21.4962, -13.6412, -3.5115
0.3829, -0.0465, 0.4474, -11.1756, -26.2901, 5.7328
0.3829, -0.0875, 0.3954, 3.3206, -36.0840, 9.4275
0.3666, -0.1681, 0.2316, 9.0611, -35.7863, 8.9084
0.3634, -0.2081, 0.1259, 14.3740, -35.1450, -2.1527
0.3768, -0.1688, 0.0663, 24.6489, -27.4351, -22.1679
0.3986, -0.1556, 0.0643, 25.6031, -15.4504, -23.3740
0.4628, -0.0768, 0.1647, 20.8092, -6.1450, -19.7786
0.4740, -0.0143, 0.2531, 8.9847, 1.8626, -13.2672
0.5079, 0.0433, 0.3571, 0.0840, -2.5267, -4.8702
0.5040, 0.0065, 0.3448, -10.1832, -4.8931, 5.9389
0.4928, -0.0031, 0.2328, -14.3969, -4.0916, 13.1603
0.4813, -0.0404, 0.1268, -24.0916, -3.0611, 19.7634
0.5038, -0.0707, 0.1925, -37.5649, -4.0534, 27.0534
0.4816, -0.0538, 0.2487, -38.8168, 5.8092, 23.0458
0.4913, -0.0394, 0.3241, -36.6183, 5.6718, 22.1145
0.4823, -0.0365, 0.3536, -25.3282, 3.6870, 21.7252
0.4918, -0.0343, 0.3505, -5.1298, 1.9084, 17.1679
0.5011, -0.0382, 0.3324, 20.2366, 1.7328, 7.9542
0.4862, -0.0533, 0.3160, 34.6565, -0.5878, 1.6183
0.4877, -0.0687, 0.2662, 37.5878, 1.2519, 0.3511
0.4716, -0.0839, 0.2028, 27.9924, 7.9847, 1.0840
0.4694, -0.0831, 0.1637, 12.5038, 18.1450, 4.3664
0.4835, -0.0294, 0.1862, 4.2672, 26.6336, 5.3893
0.4982, -0.0206, 0.2635, -4.2061, 32.0840, 11.7099
0.4926, -0.0431, 0.2933, -17.2901, 42.6412, 24.8092
0.5038, -0.0341, 0.3729, -23.0229, 47.8321, 31.0153
0.5150, -0.0404, 0.4200, -6.1756, 30.0916, 26.6718
0.4852, -0.0499, 0.3964, 16.8321, 14.1756, 14.6794
0.4503, -0.0961, 0.3517, 24.2443, 5.8702, 9.1298
0.4117, -0.1237, 0.3109, 15.1756, 7.4656, 9.1908
0.4103, -0.1276, 0.2848, 9.3282, 11.7634, 7.9695
0.4137, -0.1100, 0.2848, -0.4885, 14.8397, 10.8626
0.4156, -0.1183, 0.2692, -12.4656, 20.4427, 19.9084
0.4086, -0.0951, 0.2264, -21.0229, 33.2290, 29.8931
0.4030, -0.0677, 0.1996, -34.8168, 52.9771, 44.1221
0.3929, -0.0629, 0.1520, -58.0916, 77.5267, 55.8779
0.3907, -0.1254, 0.1923, -107.3817, 89.7634, 67.5725
0.3385, -0.1346, 0.2806, -122.1069, 120.4657, 72.4504
0.3871, -0.0895, 0.3094, -86.4580, 116.9542, 56.4427
0.4188, -0.1666, 0.3375, -61.5038, 28.5344, 20.4351
0.3563, -0.0702, 0.3070, 34.1374, -25.8931, -5.3282
0.3617, -0.0941, 0.2018, 50.9160, -12.5267, -23.1603
0.3527, -0.1058, 0.1698, 44.7328, 4.9771, -34.5649
0.3463, -0.1127, 0.2032, 60.1985, -7.6870, -50.8473
0.3451, -0.1327, 0.2042, 62.3511, -13.0687, -53.8244
0.3129, -0.1595, 0.1940, 55.0916, -10.8550, -46.4275
0.3097, -0.1461, 0.1603, 48.9160, -4.9847, -37.1756
0.3063, -0.1310, 0.1788, 32.8473, 5.9618, -25.3206
0.3214, -0.1088, 0.2030, 18.6489, 13.2214, -12.2901
0.3304, -0.0907, 0.2372, 13.5115, 11.2290, -4.5496
0.3143, -0.1061, 0.2255, 12.0153, 7.5191, 1.1374
0.3234, -0.0909, 0.1915, 10.2595, 6.2366, 3.6336
0.3156, -0.0927, 0.1876, 9.9542, 5.5038, 4.0611
0.3134, -0.0948, 0.1744, 9.8092, 4.5344, 3.4580
0.3234, -0.0895, 0.1971, 7.2901, 1.8168, 1.4427
0.3304, -0.0826, 0.2072, 5.4122, -0.8779, 0.2443
0.3373, -0.0590, 0.1959, 6.4275, -3.0076, -0.5649
0.3348, -0.0553, 0.1937, 7.5802, -3.0534, -0.7405
0.3329, -0.0619, 0.1647, 9.3282, -1.8779, -0.4427
0.3336, -0.0714, 0.1815, 9.6870, 0.2901, -0.6107
0.3312, -0.0721, 0.1996, 9.0458, 2.8626, -0.4198
0.3414, -0.0726, 0.1984, 9.7099, 2.9542, -2.0229
0.3358, -0.0736, 0.1866, 8.4656, 1.8015, -0.9237
0.3429, -0.0590, 0.1974, 9.0000, 0.1374, -2.4351
0.3409, -0.0482, 0.2177, 13.9771, -0.3206, -5.0763
0.3444, -0.0460, 0.3048, 22.0840, -1.4122, -14.9237
0.3529, -0.0402, 0.3961, 30.4427, -5.7557, -23.8702
0.3727, -0.0309, 0.4008, 35.3053, -11.1908, -26.7023
0.3453, -0.0404, 0.3695, 40.9008, -8.6031, -24.1679
0.3466, -0.0375, 0.3346, 43.6641, -7.9466, -30.7786
0.3578, -0.0294, 0.3373, 41.9618, -6.2977, -30.3893
0.3553, -0.0175, 0.3624, 38.0153, 1.8779, -30.6183
0.3634, -0.0204, 0.3844, 37.0229, 3.4809, -18.6641
0.3717, -0.0160, 0.4386, 43.1145, -4.8015, -13.5115
0.3480, -0.0323, 0.4249, 34.3893, -6.5802, -7.7863
0.3539, -0.0270, 0.4174, 18.9618, -6.2748, -2.8626
0.3539, -0.0052, 0.3824, 8.0916, -2.4962, -3.1374
0.3593, 0.0040, 0.4376, 4.7481, -2.5038, -4.6336
0.3458, -0.0009, 0.4320, 5.2214, -1.1145, -8.8702
0.3451, 0.0157, 0.4681, 6.2519, -4.2290, -11.8244
0.3500, 0.0135, 0.4496, 3.5878, -7.5115, -12.1679
0.3346, -0.0109, 0.4247, 6.0916, -11.2214, -13.8321
0.3363, -0.0194, 0.3768, 14.6031, -18.7634, -16.8550
0.3370, -0.0145, 0.3475, 14.3969, -26.2824, -21.1374
0.3336, 0.0201, 0.3619, 6.1985, -25.3130, -23.0229
0.3505, 0.0240, 0.3546, -0.3206, -21.8626, -20.4122
0.3807, 0.0682, 0.3143, 7.7328, -13.0458, -15.5115
0.3937, 0.0719, 0.2560, 27.4122, -2.6489, -16.8626
0.3912, 0.0143, 0.1735, 36.3435, -1.5878, -19.7634
0.4095, 0.0031, 0.1530, 37.0229, 3.7634, -21.4504
0.4049, -0.0084, 0.1617, 31.7023, -0.9695, -24.2137
0.4257, 0.0177, 0.1908, 14.6641, -8.1069, -21.5802
0.4149, 0.0338, 0.1959, 3.2214, -17.8855, -21.0000
0.3934, 0.0397, 0.1561, 0.7252, -19.2748, -24.2977
0.3927, 0.0778, 0.2430, 29.5573, -33.3206, -29.5573
0.4000, 0.0602, 0.2267, 47.8321, -36.9618, -26.9389
0.4159, 0.1029, 0.2462, 57.5878, -34.5038, -21.5878
0.3944, 0.1093, 0.1615, 61.0763, -21.2443, -21.9924
0.4496, 0.0895, 0.1154, 58.1069, -19.8779, -16.0534
0.4540, 0.0870, 0.0931, 4.2977, -9.6336, -0.2443
0.4764, 0.1417, 0.1273, -36.5802, -2.9618, 17.5649
0.4655, 0.1227, 0.1254, -64.7099, 4.9618, 14.8931
0.4696, 0.1312, 0.1412, -72.4046, 6.1450, 15.3435
0.4647, 0.1068, 0.1600, -64.2977, 2.1985, 11.7252
0.4730, 0.0560, 0.1193, -55.4275, 2.9160, 9.1527
0.4640, 0.0023, 0.0856, -39.1756, 7.8321, 2.6870
0.4586, -0.0211, 0.0848, -23.2366, 12.7634, 0.6641
0.4454, 0.0321, 0.1437, -15.1145, 12.9160, -2.4885
0.4320, 0.1031, 0.2352, -13.3969, 10.5191, -4.3130
0.4159, 0.1085, 0.2787, -19.4656, 7.5496, -3.8626
0.4025, 0.1027, 0.2484, -23.0305, 12.9160, -4.2595
0.4249, 0.0946, 0.1945, -15.7634, 6.9924, -8.4427
0.4645, 0.0907, 0.0817, -7.3511, -0.7863, -11.3740
0.4867, 0.0468, 0.0262, -7.5115, -3.9389, -5.7939
0.4799, 0.0043, -0.0321, -21.9695, 0.3817, 2.7939
0.4677, 0.0670, 0.0219, -18.6565, 3.4733, 2.4656
0.4691, 0.1615, 0.1217, -9.3969, 2.8168, 8.8168
0.4635, 0.1686, 0.1864, -2.4809, 0.2672, 16.1145
0.4342, 0.1097, 0.1913, 10.5573, -4.1069, 11.6947
0.4486, 0.1051, 0.1600, 7.8321, -7.2137, 15.8855
0.4703, 0.1307, 0.0912, 14.6870, -8.0458, 15.0153
0.4691, 0.0802, -0.0267, 22.0458, -0.7710, 9.5649
0.4655, 0.0111, -0.0677, 18.4580, 9.7634, 5.0687
0.4645, 0.0109, -0.0824, 17.5573, 14.2290, 2.5573
0.4701, 0.0367, -0.0504, 24.6412, 14.0992, -0.4122
0.4730, 0.0267, -0.0331, 25.1603, 12.1374, 1.5573
0.4489, -0.0184, -0.0455, 19.5114, 8.9160, 0.4046
0.4396, -0.0336, -0.0494, 10.0611, 5.8092, -4.1908
0.4445, -0.0367, -0.0812, -3.5420, 4.0763, -9.2290
0.4462, -0.0470, -0.1007, -15.8397, 5.2290, -13.7405
0.4481, -0.0458, -0.0822, -23.8321, 6.8092, -14.5954
0.4391, -0.0182, -0.0641, -28.5802, 6.6489, -15.6260
0.4337, 0.0248, -0.0035, -23.2824, 4.2443, -14.2214
0.4327, 0.0441, 0.0802, -16.9847, -1.4656, -11.2901
0.4183, 0.0399, 0.1139, -10.9160, -8.1221, -8.5344
0.4174, 0.0148, 0.0660, -6.8626, -11.5344, -3.9924
0.4259, -0.0150, 0.0067, -4.7405, -10.3435, -2.8626
0.4469, 0.0026, -0.0031, -1.4809, -8.5115, -3.5267
0.4442, -0.0118, 0.0140, 1.6336, -7.1527, -1.3282
0.4435, -0.0079, 0.0470, 1.0534, -7.8473, -0.5649
0.4476, -0.0370, 0.0787, 0.6183, -7.3740, -0.2824
0.4532, -0.0616, 0.0568, -0.9542, -4.0076, -2.0534
0.4557, -0.0428, 0.0436, -4.1145, 1.1603, -5.2061
0.4540, -0.0092, 0.0602, -6.2443, 4.4809, -4.8931
0.4635, 0.0304, 0.0963, -3.7328, 5.6565, -2.7023
0.4603, 0.0365, 0.1371, -2.4351, 4.9847, -0.2137
0.4537, 0.0226, 0.1708, -5.0076, 3.0763, 0.4809
0.4462, 0.0162, 0.1862, -1.0763, 1.7328, 1.2519
0.4469, -0.0018, 0.1664, 0.8168, 1.7023, 1.2214
0.4452, -0.0231, 0.1593, 2.8779, 2.8473, -0.0763
0.4562, -0.0338, 0.1456, 3.4809, 3.6412, -6.1145
0.4650, -0.0297, 0.1320, 1.4198, 5.9695, -7.4962
0.4843, -0.0013, 0.1273, -1.4733, 7.1985, -6.9542
0.4921, 0.0143, 0.1254, 0.1985, 6.8092, -3.2977
0.4845, 0.0070, 0.1339, 2.0916, 7.1527, 0.8168
0.4865, 0.0026, 0.1268, 6.5954, 6.6260, 1.7099
0.4794, -0.0365, 0.1263, 5.2519, 5.8550, 2.7099
0.4720, -0.0524, 0.1254, -1.5496, 6.8931, 2.2672
0.4664, -0.0170, 0.1110, -2.7939, 7.7252, -0.3053
0.4681, 0.0118, 0.1322, -1.3588, 8.3359, 0.9542
0.4603, 0.0201, 0.1185, 2.2061, 8.4580, 3.0992
0.4554, 0.0062, 0.0980, 5.5191, 7.2519, 4.0992
0.4418, -0.0013, 0.0648, 6.2595, 7.6260, 5.3511
0.4342, 0.0184, 0.0414, 7.6412, 6.8779, 5.3664
0.4415, 0.0099, -0.0106, 6.2519, 6.3664, 6.9847
0.4503, 0.0177, -0.0487, 4.3206, 6.8626, 8.3511
0.4589, 0.0194, -0.1000, 1.1832, 8.8855, 8.3969
0.4554, 0.0226, -0.0997, -0.8855, 11.3817, 10.3969
0.4518, 0.0468, -0.1154, -3.0992, 12.7023, 17.4427
0.4425, 0.0521, -0.1005, 3.5954, 11.0000, 16.7176
0.4379, 0.0336, -0.1024, 4.7176, 9.2366, 19.3130
0.4388, 0.0460, -0.1349, 3.2824, 7.5038, 18.3435
0.4498, 0.0304, -0.1456, 1.4809, 6.1374, 15.7939
0.4755, 0.0192, -0.1578, -9.5573, 7.1832, 12.1679
0.4989, 0.0363, -0.1454, -20.9008, 10.1679, 9.3130
0.5099, 0.0458, -0.1249, -30.2672, 12.5878, 7.2137
0.4989, 0.0692, -0.0836, -37.0916, 17.6412, 5.3969
0.4906, 0.0834, -0.0624, -43.2519, 20.5191, 9.8931
0.4850, 0.1198, -0.0358, -37.7710, 18.0687, 15.6718
0.4850, 0.1107, 0.0265, -30.4656, 6.5267, 21.5573
0.4513, 0.0907, 0.0194, -22.1603, -2.8168, 22.0534
0.4384, 0.0428, 0.0223, -14.1756, -8.7023, 18.4275
0.4083, -0.0634, 0.0294, -18.6031, -8.5496, 13.0992
0.3895, -0.2020, 0.0079, -25.2824, 2.2061, 2.6565
0.4371, -0.1962, -0.0392, -41.9847, -5.3740, -0.4504
0.4847, -0.0890, 0.0184, -43.4962, -4.8931, 11.1985
0.4867, -0.0160, 0.0709, -34.3282, -4.4427, 25.6107
0.4701, 0.0333, 0.2001, -12.2519, -3.2672, 30.1908
0.4291, -0.0001, 0.3290, 19.2977, -9.3588, 28.5114
0.4122, -0.0812, 0.3475, 36.2748, -18.0916, 26.4733
0.4147, -0.1395, 0.2494, 41.9924, -18.7710, 17.5344
0.4354, -0.2284, 0.1019, 37.8092, -12.0000, 3.8092
0.4965, -0.2482, -0.0472, 31.2214, 3.5115, -12.7328
0.5375, -0.1561, -0.0082, 11.6260, 22.1374, -23.2443
0.5226, -0.0360, 0.1727, -11.9542, 28.8779, -14.6870
0.4686, 0.0294, 0.4186, -7.4580, 20.8473, 1.4885
0.4171, -0.0240, 0.5367, 11.1756, 6.4656, 14.5725
0.3290, -0.1642, 0.5336, 32.0000, 4.7252, 12.9008
0.3190, -0.2606, 0.3988, 38.9389, 5.4275, 5.0916
0.3622, -0.3141, 0.2191, 42.7099, 12.2748, -14.1145
0.4310, -0.2985, 0.0941, 29.8473, 19.9008, -31.5496
0.5009, -0.1613, 0.0768, 19.6260, 27.9008, -37.2672
0.5616, -0.0243, 0.1903, 4.7176, 25.5114, -26.0305
0.5272, 0.0314, 0.3375, 6.4809, 26.4198, -9.5344
0.4847, 0.0072, 0.4794, -2.8473, 17.7634, 13.7710
0.4091, -0.0914, 0.5050, -12.8855, 13.2824, 27.7328
0.3578, -0.1283, 0.4633, -21.1527, 3.4122, 20.4809
0.3568, -0.1683, 0.3312, -21.9542, 3.0458, 7.4580
0.4059, -0.1586, 0.2198, -15.2214, 7.7176, -9.4580
0.4635, -0.1073, 0.1805, -12.7405, 12.9008, -15.3664
0.5355, -0.0204, 0.2211, -8.0458, 13.2901, -9.6718
0.5663, 0.0905, 0.2596, 7.2519, 0.0687, 8.1756
0.5499, 0.0631, 0.2950, 13.7863, -6.2748, 31.2290
0.4908, -0.0570, 0.3036, -8.7786, 5.3664, 56.0382
0.3741, -0.1542, 0.3185, -34.4198, 12.6260, 45.9847
0.3573, -0.1908, 0.2811, -44.5191, 17.7405, 29.2977
0.4044, -0.1351, 0.3258, -42.0916, 15.5038, 10.3053
0.4406, -0.0917, 0.3937, -22.3511, 5.2061, 7.4275
0.4650, -0.0817, 0.4117, -1.1374, -5.7863, 13.3435
0.4503, -0.1288, 0.3324, 1.1756, -6.4427, 26.8244
0.4193, -0.1456, 0.2235, -6.3588, -2.5115, 34.0763
0.4396, -0.1151, 0.2291, -19.3282, 15.3435, 33.8550
0.4059, -0.0880, 0.2289, -27.9008, 35.1679, 34.7176
0.4391, -0.0905, 0.2860, -35.0076, 44.1679, 32.3435
0.4696, -0.0907, 0.3192, -33.6489, 45.2901, 32.3053
0.4684, -0.0870, 0.3661, -20.0000, 35.6947, 35.0916
0.4591, -0.1190, 0.3207, -6.3053, 16.9618, 32.4885
0.4410, -0.1163, 0.2679, 12.4504, 5.1679, 29.1679
0.4200, -0.1442, 0.2667, 18.0534, -1.4351, 19.8626
0.3893, -0.1752, 0.2841, 4.4198, -3.5802, 10.1450
0.3881, -0.1732, 0.3160, -16.3588, 4.6260, 8.3588
0.4088, -0.1442, 0.3888, -25.1756, 9.2137, 11.1832
0.4213, -0.1105, 0.4098, -2.9542, 25.2061, 16.7634
0.4166, -0.1544, 0.3969, -2.1603, 8.1985, 18.2901
0.4056, -0.1823, 0.3756, 10.0687, -10.3893, 18.1069
0.3737, -0.2184, 0.3497, 18.2595, -18.4809, 9.8321
0.3314, -0.2819, 0.2972, 4.5420, -8.4885, 11.2672
0.3375, -0.2516, 0.2548, -6.0076, 0.3359, 4.5802
0.3627, -0.2372, 0.2582, -5.1908, -2.6183, -3.6031
0.3795, -0.2035, 0.2264, -8.6336, -3.2672, -2.5191
0.3976, -0.1600, 0.1962, -9.7099, 0.5649, 0.9466
0.4125, -0.1588, 0.1627, -4.5573, 1.3435, 1.7405
0.4010, -0.1478, 0.1136, 2.4962, 1.0916, 0.1527
0.4200, -0.1151, 0.1324, 3.3359, 4.6412, -2.0840
0.4301, -0.1117, 0.1725, 2.7786, 5.7099, -2.2290
0.4254, -0.1173, 0.1615, 6.1527, 6.0611, 1.8550
0.4183, -0.1161, 0.1505, 7.3893, 8.7099, 0.8931
0.4303, -0.1385, 0.1603, 11.7634, 14.5954, 3.0229
0.4205, -0.1373, 0.1425, 9.0305, 11.8626, 1.5115
0.4176, -0.1176, 0.1718, 17.1298, 9.5344, -4.2137
0.4144, -0.1254, 0.2435, 14.9237, 10.9160, -4.2748
0.4030, -0.1449, 0.2296, 10.4198, 12.3511, -1.0992
0.3995, -0.1425, 0.2094, 12.2061, 9.9008, -1.3817
0.3951, -0.1595, 0.1793, 11.4198, 8.3359, -0.5878
0.3844, -0.1647, 0.1520, 5.5115, 11.4275, 0.8550
0.3905, -0.1383, 0.1471, 3.1985, 12.9695, 0.4504
0.3922, -0.1239, 0.1818, 8.9389, 10.2519, -1.1298
0.3929, -0.1251, 0.1827, 12.6107, 7.1374, -1.6794
0.3883, -0.1329, 0.2086, 11.5267, 5.2824, -1.8550
0.3856, -0.1403, 0.1879, 8.6718, 3.3359, -0.6870
0.3925, -0.1376, 0.1642, 7.6107, 1.0687, -0.7023
0.4071, -0.1156, 0.1451, 10.5649, -1.0840, -2.1832
0.4105, -0.1080, 0.1237, 11.3893, -1.1298, -3.3435
0.4261, -0.0936, 0.1505, 9.2214, -0.0611, -2.3206
0.4252, -0.0885, 0.2023, 7.1450, 1.1221, -2.2366
0.4208, -0.0985, 0.2802, 6.7328, -0.5115, -4.1298
0.4022, -0.1271, 0.3243, 4.7176, -1.3130, -3.7786
0.4086, -0.1115, 0.3732, 5.7634, -2.6260, -4.0611
0.4078, -0.0997, 0.3778, 15.4962, -6.8473, -5.7710
0.4064, -0.1244, 0.3492, 19.1832, -9.4275, -5.2519
0.3969, -0.1329, 0.3295, 20.9160, -5.8321, -7.0916
0.4066, -0.1198, 0.3102, 14.8321, -0.6870, -6.7634
0.4017, -0.1273, 0.3463, 7.2366, 3.6718, -8.4275
0.3988, -0.1298, 0.4098, 2.9160, 4.1450, -8.5344
0.3781, -0.1503, 0.4449, 4.8779, 0.9313, -9.9618
0.3551, -0.1793, 0.4164, 5.6489, 1.2977, -5.3435
0.3517, -0.1915, 0.3778, 2.7939, 7.3130, 1.7557
0.3546, -0.1925, 0.3649, -2.0458, 13.2061, 8.8168
0.3693, -0.1752, 0.3739, -3.5725, 16.5725, 13.9084
0.3690, -0.1788, 0.3575, -5.6794, 22.0229, 19.9847
0.3702, -0.1740, 0.3663, -8.2137, 23.7939, 25.0763
0.3610, -0.1532, 0.3778, -6.1221, 24.8931, 22.2214
0.3737, -0.1483, 0.3944, -1.9771, 24.3282, 18.0687
0.3751, -0.1007, 0.4213, 4.6336, 21.7939, 13.1679
0.3993, -0.1051, 0.4291, 11.7481, 16.6718, 10.8473
0.4020, -0.0936, 0.3903, 12.5802, 11.9008, 10.5496
0.4320, -0.1046, 0.3719, 11.5725, 6.6489, 4.7405
0.4188, -0.1080, 0.3380, 4.7939, 5.6794, 3.3130
0.4117, -0.1031, 0.3197, -2.3664, 2.1069, -0.1985
0.4108, -0.1283, 0.3307, -9.6336, -0.0611, -4.3282
0.4122, -0.1381, 0.3409, -18.0305, -5.4198, -6.8321
0.4103, -0.1366, 0.3622, -14.3282, -12.5954, -10.0153
0.4169, -0.1329, 0.3744, -8.0534, -18.2214, -11.7405
0.4054, -0.1376, 0.3590, -3.2061, -21.6031, -17.0458
0.4003, -0.1317, 0.3551, -1.1298, -23.9466, -21.7634
0.4032, -0.1029, 0.3558, 3.9160, -23.9084, -22.4733
0.4200, -0.0975, 0.3207, 10.6565, -24.4580, -19.0305
0.4127, -0.1207, 0.2384, 15.2748, -24.1069, -22.4351
0.4247, -0.1605, 0.2128, 14.1985, -22.5344, -29.2595
0.4303, -0.1603, 0.2030, 17.6870, -21.9466, -32.9084
0.4274, -0.1779, 0.1998, 23.4351, -22.2748, -34.1908
0.4166, -0.1683, 0.2135, 23.7099, -23.1679, -35.2977
0.4288, -0.1298, 0.2899, 18.6107, -26.3206, -31.6336
0.4445, -0.0546, 0.3126, 16.1527, -34.1679, -31.4733
0.4677, -0.0096, 0.2885, 22.9542, -41.8550, -27.4351
0.4730, -0.0465, 0.2101, 21.9466, -43.7405, -20.9008
0.4645, -0.1298, 0.0883, 18.9847, -37.9389, -15.6183
0.4701, -0.2111, -0.0306, 22.6260, -30.4809, -21.1756
0.4738, -0.3324, -0.1102, 8.0763, -18.6641, -27.9771
0.4821, -0.2645, -0.0726, -0.4733, -13.6718, -31.2901
0.4906, -0.0902, 0.1149, 0.4427, -14.7557, -29.9237
0.4821, 0.0616, 0.2106, -15.1908, -17.1756, -25.6870
0.4823, 0.1068, 0.2089, -10.1450, -20.3664, -22.1679
0.4891, 0.0668, 0.1400, -0.8779, -22.3511, -18.8244
0.4855, 0.0048, 0.0331, 8.7557, -21.2901, -22.0840
0.5209, -0.0282, -0.0389, 14.7863, -22.0611, -26.7710
0.5480, -0.0533, -0.1176, 17.3893, -17.7252, -19.6031
0.5751, -0.0612, -0.1803, 8.9618, -9.6336, -11.4885
0.5870, -0.0167, -0.1803, -3.8397, -1.6031, -2.2214
0.6078, 0.0433, -0.0863, -12.7252, 1.9313, 5.1069
0.5797, 0.0941, -0.0118, -5.7634, -1.7863, 2.8015
0.5433, 0.0475, 0.0631, -3.2214, -3.7023, 1.5344
0.5111, 0.0031, 0.0807, -13.7481, -4.4733, -6.0611
0.4933, -0.0155, 0.0577, -14.4046, -6.4427, -10.9771
0.5253, -0.0028, 0.0031, -16.6947, -8.0763, -15.2748
0.5336, -0.0114, -0.0375, -18.1527, -7.1527, -13.6718
0.5482, -0.0240, -0.0668, -11.7328, -6.2901, -10.3817
0.5541, -0.0311, -0.0768, -4.0000, -4.6641, -4.0458
0.5629, 0.0148, -0.0541, 2.8931, -3.1069, 0.4733
0.5463, 0.0421, 0.0021, 8.4962, -4.1450, 0.4275
0.5397, 0.0138, 0.0673, 5.8092, -6.0687, 0.0458
0.5123, -0.0184, 0.1002, 5.1221, -3.4046, 0.3053
0.5118, -0.0262, 0.1056, 2.5344, 0.1450, 0.0916
0.5223, -0.0546, 0.0856, 2.5878, 2.4427, -4.7939
0.5062, -0.0753, 0.0370, 0.5344, 4.6107, -9.8015
0.5243, -0.0941, 0.0065, -4.7557, 7.6947, -14.1221
0.5370, -0.0878, 0.0023, -5.4809, 8.5496, -16.0611
0.5663, -0.0531, 0.0182, -1.2748, 6.9771, -12.8550
0.5831, -0.0211, 0.0116, 6.5649, 6.0458, -9.2214
0.5785, -0.0316, 0.0275, 14.3435, 5.5496, -4.6031
0.5616, -0.0790, 0.0355, 14.4046, 3.7786, -2.7939
0.5499, -0.0944, 0.0714, 9.5573, 1.9389, -1.8702
0.5448, -0.0760, 0.1078, 7.8015, -0.8244, -3.0611
0.5494, -0.0819, 0.1205, 7.0153, -3.3740, -3.8702
0.5450, -0.1095, 0.0800, 3.3511, -3.6031, -1.2519
0.5641, -0.1085, 0.0438, 1.2443, -1.8321, -1.9466
0.5782, -0.0834, 0.0319, 0.7023, -1.3435, -1.6412
0.5812, -0.0670, 0.0612, -1.3511, -1.9466, -1.4275
0.5802, -0.0585, 0.0839, -0.8244, -1.9084, -0.0229
0.5780, -0.0763, 0.0892, 3.9237, -1.0763, -0.1374
0.5775, -0.1093, 0.0905, 0.1298, 0.6794, -0.2748
0.5934, -0.0868, 0.0748, -3.8168, 4.0305, -0.2519
0.5990, -0.0887, 0.0868, -3.1832, 6.1832, -0.4198
0.5856, -0.1068, 0.0861, -7.1298, 7.7710, 0.3511
0.5924, -0.0875, 0.1141, -8.8092, 7.1756, 0.7557
0.5892, -0.0597, 0.1366, -4.8473, 4.6031, 2.1374
0.5870, -0.0602, 0.1461, -1.1145, 2.3282, 4.0534
0.5778, -0.0792, 0.1522, -0.3740, 1.6870, 4.0992
0.5563, -0.1031, 0.1549, -3.0458, 2.5878, 3.6870
0.5668, -0.0948, 0.1666, -10.5420, 4.7405, 1.1450
0.5748, -0.0648, 0.1656, -11.3511, 5.4504, 0.0687
0.5902, -0.0414, 0.1674, -3.2137, 4.3969, -1.2519
0.5917, -0.0443, 0.1532, -0.7405, 5.5954, 0.9160
0.6019, -0.0394, 0.1237, 0.4885, 7.1832, 2.2901
0.5917, -0.0323, 0.1339, 5.6336, 7.3740, 1.9618
0.5875, -0.0631, 0.1324, 6.8397, 8.5878, 3.0763
0.5890, -0.0670, 0.1176, 4.2290, 8.7710, 1.0458
0.5848, -0.0665, 0.1085, 4.5878, 8.3740, -0.1985
0.5819, -0.0609, 0.0951, 4.5496, 8.9008, -0.4122
0.5624, -0.0709, 0.0773, 5.4809, 10.6489, 0.0229
0.5555, -0.0712, 0.0685, 8.2901, 10.8168, -0.7176
0.5582, -0.0590, 0.0734, 12.0611, 10.5878, 1.5344
0.5394, -0.0785, 0.0367, 10.5725, 11.1603, 4.1527
0.5380, -0.0905, -0.0035, 7.0611, 11.6412, 4.0840
0.5306, -0.1056, -0.0311, 5.1069, 12.3893, 3.0916
0.5219, -0.0968, -0.0426, 4.2748, 12.9771, 2.0305
0.5201, -0.0719, -0.0358, 2.8931, 13.4275, 0.6031
0.5006, -0.0922, -0.0260, 1.3130, 12.7328, 4.5802
0.4965, -0.0936, -0.0121, 0.8168, 12.0153, 4.6336
0.4813, -0.0929, -0.0116, -1.3053, 10.9924, 3.1832
0.4928, -0.0712, -0.0214, -2.9313, 9.7710, 6.6336
0.5121, -0.0575, -0.0302, -7.0153, 8.3664, 12.0458
0.5338, -0.0240, -0.0485, -10.9542, 6.0840, 19.7939
0.5475, -0.0057, -0.0455, -10.1450, 1.6641, 27.3817
0.5568, 0.0138, -0.0353, -8.4580, -1.5191, 30.8168
0.5822, 0.0204, -0.0292, -11.7710, -3.4733, 33.3664
0.5719, 0.0016, -0.0365, -12.8015, -0.1603, 34.7710
0.5734, -0.0111, 0.0228, -19.6489, -1.3206, 34.8473
0.5524, -0.0350, 0.0409, -23.0534, 7.9160, 33.4733
0.5272, -0.0509, 0.0553, -24.5267, 8.6031, 23.4809
0.5302, -0.0790, 0.1110, -20.4427, 9.0763, 16.0153
0.5289, -0.0782, 0.1603, -24.6870, 14.1679, 13.4351
0.5297, -0.0404, 0.1776, -24.5954, 16.5802, 9.0153
0.5360, -0.0260, 0.2504, -4.7405, 9.4275, 2.8168
0.5504, -0.0336, 0.2762, 19.7328, 9.9618, 5.6641
0.5240, -0.0599, 0.2203, 37.1221, 14.4275, 14.1985
0.5306, -0.1061, 0.1559, 48.3511, 18.0458, 17.1298
0.5389, -0.1412, 0.0751, 51.1603, 21.3435, 19.6870
0.5485, -0.1464, 0.0343, 45.9237, 22.2366, 11.9924
0.5526, -0.1759, 0.0187, 36.0153, 20.4656, 8.9313
0.5438, -0.1710, -0.0262, 24.6794, 26.8092, -0.7557
0.5260, -0.1801, -0.0050, 13.0000, 37.8015, -9.9771
0.5079, -0.1539, 0.0741, -0.2595, 49.1069, -22.1298
0.5121, -0.0992, 0.1957, -16.1756, 59.1450, -22.7176
0.5087, -0.0353, 0.2408, -15.1374, 65.1145, -23.1221
0.5289, -0.0323, 0.2753, 0.8015, 59.8397, -19.7328
0.5245, -0.0765, 0.2760, 13.6794, 55.0229, -13.9542
0.5306, -0.0834, 0.2452, 23.5114, 51.4504, 2.4809
0.4950, -0.0443, 0.2877, 28.1756, 39.1374, -2.7099
0.5006, -0.0160, 0.3129, 32.5420, 27.4046, 7.1069
0.5074, 0.0150, 0.2855, 50.9618, 19.4046, 9.8321
0.5099, 0.0013, 0.2360, 67.6718, 12.8931, 11.5115
0.5052, -0.0363, 0.2208, 72.0611, 14.3282, 9.8473
0.5035, -0.0658, 0.2430, 66.9313, 21.1145, 12.5344
0.4816, -0.0634, 0.2296, 54.6565, 25.2519, 10.5573
0.4613, -0.0612, 0.1857, 43.0229, 30.4886, 9.0916
0.4257, -0.0543, 0.1288, 30.9389, 32.3969, 0.7328
0.3895, -0.0353, 0.0963, 19.8855, 32.0153, -1.6947
0.3734, 0.0192, 0.0941, 15.6870, 31.7405, -5.5802
0.4132, 0.0240, 0.1454, 16.5496, 23.9618, -1.6794
0.4100, 0.0355, 0.1740, 20.4580, 18.4580, 6.0763
0.3925, 0.0248, 0.2198, 27.2443, 10.3817, 11.5725
0.3590, 0.0070, 0.2250, 33.0916, 3.2901, 15.6183
0.3390, -0.0304, 0.1742, 30.4427, -1.7634, 18.0076
0.3231, -0.0331, 0.1281, 19.5878, -2.7634, 11.1450
0.3212, -0.0162, 0.1324, 17.5114, -7.6183, 2.8015
0.3561, 0.0297, 0.1740, 26.1832, -15.9466, -0.5878
0.3944, 0.0580, 0.1620, 32.3817, -21.7252, -0.8321
0.4276, 0.0758, 0.1654, 33.6870, -29.5878, 5.3053
0.4462, 0.0570, 0.1061, 36.1298, -37.9084, 10.4733
0.4237, 0.0284, 0.0087, 29.9084, -36.3588, 11.7863
0.4054, 0.0031, -0.0289, 15.9389, -28.8931, 5.0840
0.4020, 0.0499, 0.1178, 1.6718, -21.0229, -10.7786
0.3820, 0.0724, 0.3231, -6.8092, -15.0611, -26.2672
0.4232, 0.1071, 0.4364, -15.3588, -18.9771, -29.3435
0.4789, 0.1847, 0.5597, -18.4275, -26.0611, -25.8702
0.4923, 0.1925, 0.5013, -16.1069, -36.1069, -15.6794
0.5316, 0.1761, 0.4716, -4.2137, -43.5420, -4.2137
0.4916, 0.1388, 0.3217, 1.1527, -40.7176, 5.6641
0.4979, 0.0580, 0.2333, -0.0382, -32.8931, 7.4885
0.4916, 0.0609, 0.1837, -0.5496, -32.4656, 1.6336
0.4930, 0.0375, 0.1740, -7.5802, -33.4198, -5.0229
0.5350, 0.0538, 0.2062, -25.8626, -38.8855, -10.4504
0.5797, 0.0919, 0.2660, -32.6794, -67.0992, -16.1832
0.6119, 0.1044, 0.2399, -25.5878, -81.2748, -14.3130
0.5831, 0.0468, 0.2079, -37.0534, -88.4427, -16.1221
0.5782, 0.0472, 0.1888, -44.7557, -87.0305, -6.8168
0.5609, 0.0277, 0.1283, -33.1221, -54.5954, 4.9389
0.5521, 0.0092, 0.1115, -28.8015, -33.9008, 11.7023
0.6146, 0.0013, 0.1820, -8.5954, -16.1832, 9.1527
0.6195, 0.0216, 0.2582, 5.5496, 4.5725, -9.1145
0.6571, -0.0253, 0.3734, -6.4733, 8.2595, -5.9771
0.6884, -0.0341, 0.4501, -20.1985, 0.9466, -1.7023
0.7164, -0.0204, 0.4430, -12.4809, -11.5649, 3.8931
0.6876, -0.0184, 0.3124, -5.3053, -13.9389, 6.1298
0.6693, -0.0211, 0.2218, -13.4962, 11.1145, 18.2748
0.6810, -0.0140, 0.2255, -25.2290, 31.4656, 30.5878
0.6803, 0.0072, 0.2560, 8.3664, 25.4198, 19.8321
0.6957, -0.0182, 0.2345, 28.0305, 11.0000, 8.9924
0.7145, -0.0311, 0.2399, 9.0763, 8.6870, 16.0153
0.7052, 0.0038, 0.2499, -0.2137, 0.4427, 15.6794
0.6901, 0.0138, 0.2164, 8.0763, -14.7328, 0.7099
0.6764, -0.0116, 0.1747, 3.5115, -16.2595, 1.6260
0.6444, -0.0148, 0.1393, -6.7939, -6.8626, 7.7786
0.6212, -0.0118, 0.1237, -9.3435, 5.0382, 11.2901
0.6454, -0.0223, 0.1764, -2.8779, 13.4885, 2.8244
0.6493, -0.0135, 0.2130, 4.2214, 14.8168, -1.8015
0.6676, -0.0096, 0.2421, 3.8473, 15.0382, -4.2443
0.6576, -0.0267, 0.2494, 3.2443, 11.3817, 0.1374
0.6449, -0.0118, 0.2357, 4.6565, 7.9237, 0.9924
0.6578, -0.0009, 0.2169, 6.6412, 5.8855, 5.2443
0.6058, -0.0172, 0.1639, 12.0687, 4.6412, 3.4809
0.6014, -0.0299, 0.1376, 8.2214, 7.1908, 7.0916
0.6244, -0.0072, 0.1385, 9.2672, 7.1374, 5.8855
0.6371, 0.0062, 0.1432, 15.2824, 4.5420, 1.8244
0.6315, 0.0079, 0.1117, 13.9695, 5.2748, 2.4885
0.6364, 0.0167, 0.0961, 10.0153, 8.1679, 2.1756
0.6256, 0.0277, 0.0970, 6.6336, 12.7557, 3.9160
0.6469, 0.0345, 0.1154, 4.9160, 15.2977, 4.9237
0.6630, 0.0363, 0.1481, 6.6183, 12.8092, 4.5191
0.6366, 0.0275, 0.1488, 8.6336, 10.2519, 3.6718
0.6139, -0.0045, 0.1346, 5.6183, 10.6718, 5.6260
0.5914, 0.0021, 0.1351, 4.2290, 11.8321, 5.1985
0.6036, -0.0011, 0.1683, 5.9237, 10.6031, 1.7634
0.5948, -0.0133, 0.1674, 6.5420, 10.5496, 0.1679
0.6049, -0.0096, 0.1710, 7.8092, 7.1527, -0.4885
0.6061, -0.0028, 0.1573, 5.9618, 7.5420, -1.4962
0.6051, 0.0028, 0.1219, 3.3511, 9.7786, 0.7710
0.6127, 0.0192, 0.1139, 1.5191, 12.4580, 1.3511
0.6080, 0.0258, 0.1027, -2.1298, 18.1679, 3.7557
0.6256, 0.0314, 0.1464, -1.5115, 16.8779, 4.3282
0.6334, 0.0341, 0.1813, 2.6336, 15.7557, 0.2901
0.6222, 0.0192, 0.2008, 5.7863, 12.5725, -2.2672
0.6075, 0.0133, 0.1830, 9.3206, 10.5267, -4.2366
0.5729, -0.0035, 0.1324, 7.6489, 13.1145, -2.2672
0.5851, 0.0201, 0.1154, 5.6870, 15.3664, -0.6183
0.6083, 0.0433, 0.1461, 7.2443, 14.4733, -1.7481
0.5958, 0.0297, 0.1776, 9.7099, 10.7786, -2.9695
0.5809, 0.0099, 0.1747, 8.2137, 8.1756, -1.6641
0.5792, 0.0084, 0.2001, 4.4962, 6.9542, -0.7252
0.5753, -0.0062, 0.2008, 0.9466, 5.0153, 2.0076
0.5817, -0.0016, 0.2015, -2.7328, 4.1374, 4.9771
0.6058, 0.0187, 0.2250, -0.5802, 0.7405, 2.1908
0.6207, 0.0192, 0.2379, 0.8168, -2.4580, 2.3435
0.6136, 0.0116, 0.2313, 0.6183, -2.6412, 2.3893
0.6241, 0.0280, 0.2438, 5.1298, -4.1450, 1.1450
0.6373, 0.0367, 0.2828, 9.8931, -5.3282, -1.4656
0.6512, 0.0214, 0.3480, 17.6565, -9.1298, -8.2748
0.6056, -0.0013, 0.3197, 22.6718, -6.3282, -6.4275
0.5587, -0.0182, 0.2992, 21.6107, 1.4351, -8.8321
0.5653, -0.0402, 0.3160, 11.2519, 15.9084, -4.2901
0.5663, -0.0482, 0.3219, 1.3435, 27.4580, 3.2748
0.5470, -0.0170, 0.3217, -3.3893, 39.0458, 4.1908
0.5907, -0.0045, 0.3497, -5.5496, 45.6947, 7.3511
0.6041, 0.0367, 0.3973, -3.4733, 50.5649, 5.8855
0.6046, 0.0468, 0.4408, 2.4962, 53.8244, 4.7176
0.5880, 0.0150, 0.4940, 4.9542, 52.8092, 12.0076
0.5612, 0.0182, 0.4042, 4.2137, 57.1985, 9.0916
0.5380, 0.0326, 0.3285, -0.0534, 64.5115, 9.3282
0.5262, -0.0099, 0.2936, -9.8397, 63.0153, 17.3130
0.5179, -0.0084, 0.2858, -17.8550, 67.8092, 14.4351
0.5084, -0.0077, 0.2538, -25.6641, 58.9008, 7.6336
0.5280, 0.0148, 0.3141, -26.9466, 45.4427, 1.9695
0.5494, 0.0414, 0.3207, -21.5573, 29.6183, -3.7099
0.5455, 0.0563, 0.3417, -14.1527, 16.3206, -9.6107
0.5477, 0.0485, 0.3695, -6.0611, 6.3817, -16.0458
0.5602, 0.0385, 0.4164, 5.9847, -1.8092, -23.8168
0.5375, 0.0016, 0.4044, 11.7634, -5.5496, -25.0153
0.5184, -0.0101, 0.3890, 8.2366, -4.8244, -23.7634
0.5138, -0.0004, 0.3995, 8.0458, -6.4504, -29.3435
0.5282, -0.0060, 0.4454, 7.4885, -10.7939, -26.5496
0.5077, -0.0118, 0.4196, 1.3664, -13.4504, -20.0229
0.5089, -0.0135, 0.3656, -5.8015, -11.9466, -20.2824
0.5197, -0.0275, 0.3060, -12.8626, -8.5649, -23.5191
0.5228, -0.0087, 0.3094, -14.6260, -7.9542, -22.4504
0.5131, -0.0079, 0.3160, -10.0687, -9.4656, -25.6794
0.4935, -0.0260, 0.2943, 1.1145, -12.5573, -26.5802
0.4796, -0.0389, 0.2843, 18.4886, -15.8015, -31.0305
0.4825, -0.0631, 0.2692, 24.2901, -13.4504, -23.4656
0.4728, -0.0804, 0.2159, 9.9466, -7.7863, -14.7176
0.4923, -0.0612, 0.1332, -2.8779, -1.9924, -9.0687
0.5262, -0.0389, 0.1141, -16.3053, -0.8397, -7.3893
0.5553, 0.0189, 0.1088, -25.9084, -8.6641, -8.4733
0.5861, 0.0819, 0.1422, -31.3282, -6.1679, -1.4809
0.5848, 0.1417, 0.1613, -25.3359, -7.0000, 0.2366
0.5729, 0.1244, 0.1561, -18.7099, -9.0916, 5.4046
0.5394, 0.0663, 0.0909, -11.5649, -6.6641, 2.9466
0.5248, -0.0165, 0.0641, -9.3282, -4.1985, -7.3969
0.5052, -0.0614, 0.0651, -13.4122, 0.1527, -17.9389
0.5221, -0.0206, 0.0748, -23.2214, 0.8931, -21.0076
0.5033, 0.0060, 0.0656, -18.0992, -2.8015, -30.6947
0.4984, 0.0292, 0.0753, 1.8092, -4.2748, -36.1145
0.5016, 0.0509, 0.0580, 24.1145, -3.5420, -37.0840
0.5026, 0.0116, 0.0287, 43.8855, -0.8702, -37.0229
0.5087, 0.0114, -0.0397, 49.9160, 4.4733, -28.1603
0.5057, 0.0035, -0.0660, 48.2595, 12.0611, -22.8702
0.5233, 0.0055, -0.1075, 41.8702, 21.8092, -9.2290
0.5253, -0.0282, -0.1300, 27.0000, 28.4275, 1.3206
0.4967, -0.0074, -0.0704, 0.9389, 23.5725, 4.7481
0.4586, 0.0690, 0.0682, -10.6794, 15.9160, 1.4885
0.4471, 0.1324, 0.1425, -11.8244, 11.9466, 0.1908
0.4523, 0.1464, 0.1378, -6.2519, 2.6412, 1.8321
0.4794, 0.1349, 0.0394, 2.6565, 3.6260, 4.5038
0.5038, 0.0863, -0.0551, 9.4504, 7.4885, 2.0305
0.5079, 0.0551, -0.1102, 13.0687, 12.8550, 5.1298
0.5353, 0.0328, -0.1366, 7.6031, 17.3282, 9.8550
0.5475, 0.0424, -0.1349, 1.5191, 18.1527, 17.2214
0.5240, 0.0646, -0.0616, -9.5038, 18.0611, 17.7023
0.4945, 0.1046, -0.0211, -14.4504, 11.9160, 13.1374
0.4808, 0.0607, 0.0443, -15.4885, 7.9313, 7.5267
0.4467, -0.0309, 0.0360, -25.4580, 7.7634, 1.2137
0.4479, -0.0541, 0.0028, -32.2901, 6.9237, -6.9771
0.4738, -0.0194, -0.0123, -37.3817, 5.2290, -8.8473
0.4679, 0.0092, -0.0050, -34.1298, 6.2137, -8.7023
0.4694, 0.0399, 0.0062, -23.0763, 4.7786, -2.2137
0.4579, 0.0287, 0.0465, -9.3664, 3.3511, 3.5344
0.4525, -0.0092, 0.0514, -2.3588, 3.9466, 7.7481
0.4374, -0.0604, 0.0507, 0.9847, 4.3664, 5.4122
0.4193, -0.1344, 0.0531, -4.4122, 6.6031, 1.2901
0.4218, -0.1366, 0.0355, -11.9695, 10.2137, -3.4962
0.4469, -0.0731, 0.0487, -15.5420, 11.9542, -5.1832
0.4562, -0.0343, 0.0560, -13.1374, 12.8168, -3.3893
0.4640, -0.0267, 0.0773, -6.9618, 10.6336, 0.5344
0.4679, -0.0338, 0.0802, -1.6412, 7.0687, 5.0153
0.4767, -0.0602, 0.0856, 1.6260, 5.3359, 6.0763
0.4706, -0.1190, 0.0731, -2.5344, 4.5649, 5.8244
0.4811, -0.1176, 0.0858, -5.3359, 6.2748, 3.0534
0.4752, -0.1176, 0.0890, -5.3130, 7.2977, 1.6870
0.4703, -0.1132, 0.1158, -8.9389, 6.2290, 0.3969
0.4742, -0.0892, 0.1127, -9.6107, 4.9542, 1.5496
0.4777, -0.0590, 0.1312, -8.2061, 4.5267, 3.4809
0.4784, -0.0646, 0.1486, -6.7328, 4.8702, 4.0229
0.4784, -0.1085, 0.1566, -6.2443, 4.2748, 5.3130
0.4801, -0.1007, 0.1405, -6.9237, 5.1221, 4.3206
0.4840, -0.0912, 0.1664, -3.4046, 5.0687, 0.2290
0.4684, -0.0870, 0.1832, -0.6183, 4.9618, 1.0687
0.4801, -0.0741, 0.1840, 1.7481, 5.5573, 1.0153
0.4703, -0.0646, 0.1854, 5.2901, 6.9008, 1.6336
0.4747, -0.0599, 0.2140, 7.3511, 7.1832, 2.7176
0.4518, -0.0897, 0.2172, 3.4504, 7.8321, 3.8626
0.4503, -0.0690, 0.2389, 2.5802, 9.2748, 2.3817
0.4569, -0.0328, 0.2081, 7.4580, 10.0611, 0.0763
0.4618, -0.0424, 0.2072, 9.7176, 12.1832, -0.1450
0.4696, -0.0641, 0.1815, 8.3664, 15.4809, -1.2443
0.4877, -0.0475, 0.1495, 8.3435, 19.3130, -1.7023
0.4945, -0.0270, 0.1591, 5.7710, 20.1985, -1.0992
0.4965, -0.0370, 0.1332, 5.3740, 18.8168, 2.8244
0.4862, -0.0302, 0.1210, 9.2901, 18.1908, 2.6336
0.4762, -0.0438, 0.1251, 7.4885, 15.8244, 2.1374
0.4703, -0.0568, 0.1161, 5.4809, 14.4733, 2.4733
0.4559, -0.0333, 0.1144, 5.6183, 12.5496, 0.3588
0.4591, -0.0363, 0.1019, 5.6412, 11.0229, 2.4580
0.4525, -0.0314, 0.0997, 7.4504, 8.3282, 3.3130
0.4569, -0.0465, 0.0675, 10.1527, 6.1145, 4.7786
0.4662, -0.0538, 0.0297, 10.7786, 5.3664, 6.3359
0.4596, -0.0612, -0.0052, 12.1374, 3.9008, 7.0305
0.4576, -0.0702, -0.0079, 13.1832, 3.0458, 7.8168
0.4467, -0.0875, -0.0338, 8.8702, 2.7481, 8.7099
0.4366, -0.0673, -0.0468, 8.5267, 3.0611, 9.2901
0.4215, -0.0514, -0.0184, 8.5649, 2.7634, 7.0000
0.4110, -0.0521, -0.0145, 5.7252, 2.5344, 7.5878
0.4030, -0.0558, -0.0231, 4.6260, 1.0763, 6.7328
0.4081, -0.0499, -0.0421, 4.8550, 3.2672, 6.6183
0.4340, -0.0736, -0.0817, 3.2595, 4.6718, 5.4046
0.4537, -0.0314, -0.1034, 5.2290, 0.5038, -4.0458
0.4843, -0.0553, -0.0966, 12.4809, 1.6870, -3.7481
0.5270, -0.0297, -0.1378, 11.8168, 2.3359, 6.8550
0.5438, 0.0553, -0.1803, 26.7710, -5.8092, 23.5496
0.5052, 0.0504, -0.0306, 46.8168, -0.3206, 17.8779
0.4698, -0.0184, 0.0375, 24.7939, 6.7710, 23.2595
0.4523, -0.0436, 0.0782, 6.2824, 10.2748, 26.7786
0.4340, -0.0575, 0.0709, 6.9771, 11.8550, 28.8473
0.4152, -0.1173, 0.0485, -2.5191, 13.6489, 25.8015
0.4034, -0.1202, 0.0206, -15.6031, 12.5496, 23.8092
0.4105, -0.0790, -0.0111, -16.9695, 11.3511, 17.6412
0.4340, -0.0226, -0.0055, -17.6718, 10.1756, 10.3588
0.4762, 0.0433, 0.0519, -9.9466, 3.7328, 7.9084
0.4923, 0.0734, 0.1354, 3.1985, -8.1527, 5.5878
0.5048, 0.1207, 0.1793, 10.0076, -17.0916, 9.0382
0.4943, 0.1432, 0.2296, 11.9313, -21.1221, 14.5954
0.4840, 0.1034, 0.1674, 18.8321, -12.7557, 13.9924
0.4791, 0.0724, 0.1036, 27.2214, 2.6107, 14.5725
0.4647, 0.0182, 0.0504, 35.6107, 18.9847, 4.3435
0.4916, -0.0365, 0.0294, 28.7328, 27.6107, -6.0305
0.5201, -0.0536, -0.0255, 5.6947, 38.3282, -9.5649
0.5385, 0.0326, 0.0182, -14.7405, 40.5725, -9.3817
0.5289, 0.1478, 0.2120, -19.3740, 25.4122, -3.0534
0.4657, 0.1986, 0.3094, -8.4046, 20.4351, 12.1450
0.4274, 0.2015, 0.3624, 14.1221, 19.1679, 23.8015
0.3932, 0.1246, 0.3573, 49.5038, 22.3130, 27.4962
0.3778, -0.0778, 0.2914, 65.7863, 23.8321, 24.3282
0.3700, -0.1713, 0.1666, 52.4656, 28.0000, 12.4962
0.3969, -0.1791, 0.0360, 32.3969, 36.4580, -1.3053
0.4376, -0.0719, 0.0204, 3.4351, 47.3588, -11.5420
0.4398, 0.0858, 0.1678, -25.1832, 55.0458, -13.3969
0.4955, 0.2775, 0.4650, -21.1145, 34.0611, -1.9160
0.4537, 0.2235, 0.5079, -1.7939, 0.1908, 22.2595
0.4086, 0.0677, 0.4003, 14.1756, -16.3053, 30.2214
0.3763, -0.0485, 0.2330, 11.4656, -13.6183, 26.6870
0.3871, -0.1097, 0.1119, -2.1908, -8.7939, 18.5496
0.3939, -0.0817, 0.0848, -18.1374, -7.9160, 10.7176
0.4012, -0.0277, 0.1925, -28.2214, -6.1450, 5.0687
0.4196, 0.0133, 0.3468, -29.6260, -5.4656, 5.6489
0.3988, -0.0084, 0.4720, -27.1908, -9.7023, 8.5802
0.3864, -0.0472, 0.4991, -20.3435, -24.1069, 12.7557
0.4139, -0.0372, 0.4999, -7.2519, -35.0000, 9.7710
0.4181, -0.0270, 0.4484, 12.0458, -48.8015, 3.5954
0.4291, -0.0123, 0.2819, 18.1527, -48.5344, 0.1298
0.4196, -0.0355, 0.1742, 5.5954, -28.9847, 1.9237
0.4366, -0.0426, 0.1586, -8.2214, -7.3053, 4.9466
0.4413, -0.0216, 0.1871, -17.3053, -3.2519, 7.8092
0.4569, -0.0367, 0.2645, -13.8397, -1.8931, 5.0382
0.4335, -0.0660, 0.3263, -22.2824, 3.3740, 6.3664
0.4562, -0.0905, 0.3807, -32.9847, 1.4504, 6.9160
0.4755, -0.0629, 0.3712, -32.6718, -3.9847, 8.5420
0.4884, -0.0370, 0.3710, -28.4275, -7.3969, 7.1832
0.4830, -0.0426, 0.3390, -19.6565, -10.4275, 9.5954
0.4867, -0.0853, 0.2736, -18.4962, -10.7634, 13.6565
0.4904, -0.0760, 0.2013, -26.1679, -8.2519, 15.5115
0.4728, -0.0692, 0.1852, -20.2901, 4.3817, 14.1908
0.4867, -0.1000, 0.2472, -20.2366, 8.7405, 5.8244
0.4979, -0.1110, 0.3375, -24.1374, 11.7023, 7.5115
0.5048, -0.1075, 0.3785, -17.4886, 10.5954, 9.1145
0.5206, -0.0895, 0.3668, -1.2748, -3.8168, 6.0076
0.5067, -0.0895, 0.2897, 9.5573, -15.6183, 5.3664
0.5258, -0.1239, 0.2277, 9.0763, -16.2824, 5.6718
0.4874, -0.1119, 0.1996, 10.4198, -22.4504, -3.8397
0.5089, -0.1068, 0.2003, 10.8473, -36.3664, -10.8702
0.4786, -0.0927, 0.1537, -2.7176, -9.1298, -4.5191
0.5028, -0.0997, 0.1893, -25.2443, 23.9771, 8.1298
0.5236, -0.0736, 0.2635, -10.7863, 25.1374, 3.2977
0.5079, -0.0621, 0.2552, 12.9237, 16.0687, -3.6947
0.5563, -0.0919, 0.3258, 16.5573, 10.9084, -6.1756
0.5687, -0.0753, 0.3895, 20.6107, 6.4656, -4.4504
0.5441, -0.0790, 0.3478, 30.7176, -5.4427, -4.1221
0.4938, -0.1046, 0.2318, 24.1069, -10.9924, -0.2977
0.4686, -0.0956, 0.1229, 6.8321, -3.5115, 3.8321
0.4865, -0.0714, 0.1141, -5.3817, 8.1374, 5.8244
0.5192, -0.0409, 0.1779, -8.8397, 13.7786, 7.4275
0.5480, -0.0277, 0.2548, 0.5115, 8.6031, 7.3664
0.5521, -0.0265, 0.2931, 15.6565, -2.6260, 5.1298
0.5209, -0.0629, 0.2521, 23.0611, -9.7786, 1.4504
0.5028, -0.0800, 0.2059, 18.5496, -8.8092, 0.9618
0.4974, -0.0660, 0.1586, 11.4504, -3.7557, 0.1985
0.5172, -0.0482, 0.1466, 5.5954, 1.5038, 1.6565
0.5280, -0.0380, 0.1862, 7.9084, 3.3817, 2.2443
0.5343, -0.0282, 0.2023, 13.0916, 3.4504, 2.4962
0.5336, -0.0302, 0.2201, 16.0534, 1.3588, 3.0229
0.5258, -0.0380, 0.2267, 19.8855, 1.3740, 2.4122
0.5228, -0.0590, 0.2457, 13.1756, -0.9313, 4.9924
0.5055, -0.0638, 0.1945, 9.6947, -1.9313, 5.6412
0.5038, -0.0548, 0.1747, 8.4885, -1.1985, 3.5649
0.5079, -0.0526, 0.1791, 8.0382, -0.1221, 1.9542
0.5155, -0.0541, 0.1927, 7.5573, -1.3893, 1.6870
0.5118, -0.0548, 0.1942, 8.0840, -4.2366, -0.2519
0.5043, -0.0590, 0.1852, 7.9084, -5.0229, -1.1985
0.5092, -0.0570, 0.1791, 7.7176, -3.7481, -0.9695
0.5162, -0.0463, 0.1991, 8.3893, -3.2214, -1.9313
0.5380, -0.0345, 0.2147, 12.2061, -5.2214, -3.6870
0.5355, -0.0245, 0.1891, 15.0992, -6.2824, -2.7405
0.5319, -0.0157, 0.1564, 9.4122, -2.3053, 0.0000
0.5294, -0.0267, 0.1622, 3.3969, 3.6336, 0.3817
0.5321, -0.0333, 0.2096, 2.9847, 5.5573, -0.5649
0.5543, -0.0333, 0.2682, 3.3969, 4.0229, -1.2290
0.5751, -0.0341, 0.3456, 4.4733, 0.3893, -2.4122
0.5719, -0.0358, 0.3553, 6.0000, -3.1603, -0.5725
0.5477, -0.0502, 0.3517, 8.1756, -6.3817, -1.4885
0.5328, -0.0856, 0.3424, 9.8473, -5.3435, -2.5649
0.5118, -0.1149, 0.3427, 8.1374, -5.3817, 2.2824
0.5233, -0.1019, 0.3651, 2.2366, -1.9618, -4.0153
0.5299, -0.1156, 0.3878, -8.1450, 1.1221, -3.5496
0.5353, -0.1139, 0.4191, -15.0611, 6.1679, 0.4427
0.5172, -0.1322, 0.4432, -23.3206, 13.0458, 6.0763
0.5167, -0.1500, 0.4589, -34.0000, 24.5496, 10.9389
0.5331, -0.1569, 0.4982, -41.0763, 30.6260, 9.8397
0.5573, -0.1610, 0.5250, -42.3206, 27.0534, 10.5878
0.5519, -0.1639, 0.5089, -42.6947, 21.8855, 7.8168
0.5409, -0.1432, 0.4833, -42.7405, 18.5878, 6.8473
0.5470, -0.1427, 0.4738, -41.6107, 13.9084, 6.6031
0.5455, -0.1566, 0.4650, -42.0763, 7.1221, 6.7863
0.5306, -0.1849, 0.4733, -49.8397, 10.8092, 5.2061
0.5172, -0.2003, 0.4742, -59.1985, 13.1298, 3.6107
0.5394, -0.1979, 0.4703, -59.8015, 10.5420, 0.8855
0.5599, -0.1927, 0.4313, -60.6565, 8.9695, -0.7176
0.5643, -0.1617, 0.3702, -58.9389, 6.2824, -0.4656
0.5509, -0.1610, 0.3341, -51.4198, 3.6565, -3.3588
0.5499, -0.1906, 0.3109, -49.0687, 4.8244, -3.5191
0.5480, -0.1823, 0.3143, -46.0840, 6.4809, -4.7099
0.5548, -0.1703, 0.3427, -25.6641, 0.7481, -15.2519
0.5553, -0.1471, 0.3456, 5.6107, -8.3435, -32.0153
0.5719, -0.1473, 0.4064, 21.5954, -14.3969, -44.1603
0.5558, -0.1495, 0.3771, 27.5267, -16.3817, -49.0153
0.5531, -0.1434, 0.2714, 27.4809, -13.2214, -50.0000
0.5751, -0.1071, 0.2030, 28.3740, -16.2748, -53.8626
0.5807, -0.0887, 0.1420, 37.7786, -10.7176, -61.4351
0.5817, -0.0865, 0.1017, 53.4656, -11.2519, -56.8321
0.5424, -0.1376, 0.0853, 64.0763, -2.2366, -59.9695
0.5157, -0.1959, 0.0319, 64.7939, 4.0840, -60.4504
0.5118, -0.2416, -0.0172, 66.2824, 7.9237, -55.6183
0.5499, -0.2350, -0.0480, 52.2901, 6.2901, -36.8931
0.5695, -0.1093, -0.0697, 33.0229, 15.3664, -12.7252
0.5614, -0.0421, 0.0179, 21.8931, 1.3588, -1.5725
0.5797, 0.0065, 0.0863, 23.7252, -9.6641, 2.8931
0.5433, -0.0060, 0.0575, 24.1527, -8.4885, -1.1603
0.5272, -0.0519, -0.0070, 28.6183, 5.7634, -6.2672
0.5258, -0.0861, -0.0646, 26.8397, 9.5573, -12.9389
0.5282, -0.0570, -0.1144, 29.0076, 12.6794, -15.7176
0.5726, 0.0031, -0.1403, 24.3511, 14.5038, -6.6412
0.5582, 0.0397, -0.1547, 32.7863, 8.6641, -2.0611
0.5470, 0.0392, -0.1158, 38.8550, -0.1450, -3.5725
0.5365, 0.0560, -0.0551, 33.3359, -1.1985, -2.2214
0.5319, 0.1083, 0.0219, 23.4886, -3.1985, -6.2977
0.5573, 0.1288, 0.0480, 11.6947, -1.6947, -10.3511
0.5458, 0.1144, -0.0131, 9.6794, 1.6336, -15.3664
0.5397, 0.0817, -0.0631, 9.3817, 6.4122, -19.3206
0.5248, 0.0267, -0.1154, 3.2595, 11.2595, -20.3282
0.5114, -0.0074, -0.1190, 0.4046, 13.9618, -18.4809
0.5282, 0.0194, -0.0953, -2.8931, 15.0153, -13.6031
0.5223, 0.0695, -0.0585, -0.2595, 13.0229, -7.2443
0.5133, 0.0844, 0.0140, 6.1145, 6.2977, -4.9008
0.5109, 0.0819, 0.0841, 6.4504, -0.1298, -4.9618
0.4906, 0.0468, 0.0426, 2.7710, -5.1450, -4.0992
0.4930, -0.0272, 0.0048, -1.9313, -4.0763, -7.4122
0.4777, -0.0641, -0.0480, -8.5954, -0.1298, -7.6565
0.4943, -0.0851, -0.0592, -17.1832, 3.4275, -12.0458
0.4945, -0.0651, -0.0404, -26.0534, 6.5878, -8.8779
0.4965, -0.0370, 0.0038, -20.8931, 4.3511, -8.4427
0.5016, -0.0194, 0.0643, -14.2061, -1.3435, -6.4733
0.5094, -0.0172, 0.0753, -15.3740, -5.4198, -2.3664
0.5267, -0.0153, 0.0590, -14.7557, -4.9160, -0.5725
0.5267, -0.0111, 0.0526, -9.3282, -5.0763, 1.0687
0.5262, -0.0323, 0.0675, -9.3664, -5.4275, 5.2137
0.5245, -0.0541, 0.0529, -8.7328, -5.8397, 5.9847
0.5148, -0.0878, 0.0712, -8.4504, -5.5878, 4.8779
0.5223, -0.1061, 0.0687, -12.2137, -3.9313, 4.0611
0.5328, -0.1002, 0.0687, -17.2672, -1.3130, 3.1298
0.5426, -0.0824, 0.0907, -18.3435, 0.1069, 1.8092
0.5502, -0.0895, 0.0902, -15.2595, 0.9389, 1.4122
0.5538, -0.0785, 0.1012, -17.9160, -1.7176, 1.0000
0.5585, -0.0599, 0.1364, -16.9160, -2.0229, 1.8626
0.5643, -0.0682, 0.1156, -9.0916, -3.6489, 7.8702
0.5531, -0.0695, 0.1014, -0.9160, -3.7481, 7.0992
0.5546, -0.0966, 0.0912, 0.9084, -1.9313, 7.2366
0.5546, -0.1053, 0.0546, -0.0992, 1.0000, 8.2824
0.5507, -0.0922, 0.0563, 0.3359, 2.4427, 6.8779
0.5426, -0.0941, 0.0533, 0.3588, 2.6489, 6.3969
0.5309, -0.0934, 0.0568, -1.7099, 2.0229, 6.6947
0.5367, -0.0746, 0.0797, 1.4122, 0.3817, 5.5115
0.5399, -0.0958, 0.0692, 0.8473, -1.6489, 6.7863
0.5421, -0.0912, 0.0157, -1.2366, 1.2901, 10.8626
0.5302, -0.1031, -0.0216, -3.0687, 1.8092, 11.4504
0.5341, -0.1163, -0.0211, -7.1985, 4.7328, 13.4656
0.5311, -0.1176, -0.0319, -9.0687, 3.7939, 17.2519
0.5292, -0.1127, -0.0267, -11.0000, 9.7176, 17.1908
0.5236, -0.1051, -0.0416, -11.8397, 13.3588, 17.4809
0.5302, -0.0931, -0.0695, -10.3969, 14.0992, 17.6870
0.5365, -0.0768, -0.0795, -6.5038, 11.5573, 17.6794
0.5511, -0.0260, -0.0951, -3.3588, 7.4885, 19.1908
0.5538, -0.0062, -0.1007, -1.9924, 2.9847, 21.3130
0.5504, 0.0255, -0.0927, -7.1527, -1.2137, 18.9924
0.5555, 0.0406, -0.0858, -18.3359, -3.9924, 18.9008
0.5343, 0.0150, -0.1510, -35.4809, -5.2443, 13.3664
0.5023, 0.0009, -0.1842, -52.7023, 1.1756, 4.4351
0.5172, 0.0070, -0.1686, -49.9084, 8.0458, 2.1756
0.5594, -0.0160, -0.1224, -32.7099, 11.6947, 7.4656
0.5375, -0.0419, -0.1227, -13.7863, 15.6565, 11.2137
0.5507, -0.0587, -0.0988, 4.7863, 22.9160, 16.5649
0.5370, -0.0389, -0.0511, 23.4427, 21.8550, 16.6947
0.5104, -0.0604, -0.0719, 28.8015, 21.9084, 9.6947
0.5092, -0.1105, -0.1339, 11.6031, 27.7786, 2.4962
0.5077, -0.1149, -0.1613, -12.7252, 36.2595, -2.8168
0.5597, -0.0707, -0.0770, -31.9237, 38.6565, 1.3435
0.5780, -0.0072, 0.0311, -32.6107, 35.7023, 5.0153
0.5948, 0.0323, 0.1198, -10.8397, 30.6183, 12.5496
0.5819, -0.0023, 0.1947, 21.5725, 20.1985, 17.8397
0.5665, -0.0675, 0.1569, 44.7863, 22.1145, 17.9084
0.5299, -0.1393, 0.1241, 47.2443, 25.1374, 12.8626
0.4867, -0.1896, 0.1805, 35.2137, 32.7176, 9.1832
0.4393, -0.2030, 0.2230, 39.9618, 39.3817, -1.9237
0.4283, -0.2633, 0.2692, 54.7252, 42.7099, -7.8321
0.4481, -0.2697, 0.3436, 57.4733, 41.5267, -9.0458
0.4520, -0.2189, 0.3693, 50.3511, 38.7023, -3.0916
0.5118, -0.1173, 0.4559, 39.4656, 29.3511, 0.3893
0.5555, 0.0426, 0.5966, 41.0229, 18.2595, 4.3130
0.5763, 0.0455, 0.6195, 54.7634, 3.8321, 24.0763
0.5101, 0.0387, 0.4857, 81.4885, -7.3740, 34.0076
0.5013, -0.1432, 0.4032, 113.0534, -13.3664, 34.1832
0.4415, -0.2694, 0.2360, 103.9542, -20.9160, 28.4046
0.4415, -0.2784, 0.2274, 84.1145, -14.0611, 12.7634
0.4594, -0.2509, 0.2423, 57.1679, -8.4733, 0.1298
0.5077, -0.1239, 0.2938, 32.7710, 11.3282, -9.3893
0.5477, 0.0133, 0.3761, 11.7557, 21.3893, -7.7481
0.5775, 0.0953, 0.4591, 8.1450, 12.3817, -8.4427
0.5897, 0.1351, 0.4515, 10.8702, -8.5878, -2.4962
0.5858, 0.0985, 0.3737, 13.5344, -22.6794, 5.7634
0.5448, 0.0314, 0.2130, 16.2061, -26.9084, 13.6641
0.5455, -0.0389, 0.0985, -0.3511, -19.0840, 14.8321
0.5150, -0.0651, 0.0853, -25.0992, 3.7252, 12.5573
0.5236, -0.0555, 0.1771, -49.2443, 3.4046, 9.6031
0.5360, 0.0011, 0.3661, -53.6183, -16.3664, 9.0687
0.5458, 0.0167, 0.4674, -43.5954, -40.6260, 4.0000
0.5013, -0.0082, 0.4493, -36.1145, -46.4733, 3.3053
0.5043, -0.0577, 0.3719, -37.2901, -61.5954, 5.8855
0.5150, -0.0636, 0.2699, -38.2672, -49.0382, 8.7405
0.5089, -0.0460, 0.1798, -45.5878, -32.8015, 12.4427
0.5431, -0.0282, 0.1681, -44.1450, -26.7176, 13.0687
0.5626, 0.0011, 0.1605, -30.9618, -22.4504, 6.7099
0.5797, 0.0179, 0.2719, -12.5038, -32.2977, -6.1985
0.6168, -0.0118, 0.3531, -3.7328, -40.4427, -11.0076
0.6520, -0.0394, 0.3964, -7.2901, -49.7710, -15.5496
0.6249, -0.0707, 0.3575, -9.5038, -53.8015, -15.1450
0.6234, -0.0941, 0.3141, -9.4885, -41.4504, -5.8473
0.6420, -0.1129, 0.2924, -15.1679, -31.0458, -1.6641
0.6093, -0.0651, 0.2108, -14.2366, -7.7405, 9.4504
0.6239, -0.1024, 0.2216, -3.0305, 13.9160, 5.2061
0.6559, -0.1019, 0.2631, 5.7023, 24.1298, 8.9008
0.6757, -0.1200, 0.3070, 10.5573, 23.8321, 7.9084
0.6793, -0.1359, 0.3278, 8.7634, 14.4809, 10.8550
0.6678, -0.1298, 0.3400, 10.5115, 3.4122, 7.6412
0.6454, -0.1356, 0.2794, 13.1908, -4.0229, 5.1298
0.6212, -0.1119, 0.1825, 9.1069, 2.3588, 6.8321
0.6329, -0.0885, 0.1547, 7.7786, 14.4809, 6.7252
0.6317, -0.0758, 0.1434, 9.7481, 21.2214, 7.1069
0.6293, -0.0690, 0.1293, 15.1221, 22.0382, 5.1832
0.6337, -0.0638, 0.1256, 15.8550, 21.8626, 4.5878
0.6442, -0.0519, 0.1444, 7.6183, 21.8244, 8.4198
0.6539, -0.0524, 0.1676, 4.0611, 21.2366, 9.9389
0.6466, -0.0546, 0.1781, 6.2519, 13.7481, 10.0000
0.6283, -0.0712, 0.1522, 6.5191, 8.5344, 8.6489
0.6183, -0.0992, 0.1307, 2.6947, 6.4198, 16.1221
0.6088, -0.0638, 0.1366, 3.0382, 5.1221, 10.9160
0.6266, -0.0651, 0.1827, 4.9847, 3.9771, 9.7481
0.6176, -0.0778, 0.1862, 3.3817, 0.6641, 9.3282
0.6171, -0.0787, 0.1781, 3.0534, -1.3359, 4.5267
0.6180, -0.0541, 0.1805, 5.4427, -3.6718, -1.0611
0.6205, -0.0536, 0.1710, 12.0916, -4.8244, -4.9847
0.6066, -0.0514, 0.1559, 14.6718, -3.6260, -7.7863
0.6097, -0.0636, 0.1261, 11.0916, -0.9695, -6.9695
0.6195, -0.0345, 0.1407, 8.9466, 3.5802, -4.3053
0.6447, -0.0004, 0.1793, 11.5496, 3.0611, -4.7252
0.6576, -0.0153, 0.2032, 11.2748, 2.5878, -0.9847
0.6437, -0.0219, 0.1981, 6.9160, 5.9313, 3.4427
0.6429, -0.0262, 0.2140, 8.3511, 4.1145, 0.0687
0.6364, -0.0624, 0.2194, 10.6031, 1.9008, -1.6260
0.6141, -0.0787, 0.1759, 8.4656, 1.7481, -0.1069
0.6185, -0.0714, 0.1696, 4.7634, -1.6794, 1.6718
0.6053, -0.0724, 0.1307, -1.2443, -1.1145, 2.2137
0.6246, -0.0480, 0.1412, -5.3130, 1.5420, 2.4962
0.6378, -0.0223, 0.1610, -2.5878, 2.6031, 1.9618
0.6390, -0.0240, 0.1825, 1.8321, 3.0687, 2.8473
0.6132, -0.0465, 0.1622, 5.3817, 5.7023, 2.4046
0.6041, -0.0712, 0.1566, 8.4733, 7.9618, -0.4122
0.6188, -0.0536, 0.1871, 10.8244, 7.6947, -1.8550
0.6185, -0.0524, 0.1827, 10.7481, 6.9237, -1.2061
0.6288, -0.0424, 0.1986, 11.3053, 6.1145, -2.4962
0.6349, -0.0482, 0.2054, 9.6183, 4.0458, -2.9542
0.6190, -0.0399, 0.1849, 6.9847, 3.5725, 0.0305
0.6163, -0.0411, 0.1703, 5.4275, 2.6870, -0.0611
0.6102, -0.0240, 0.1730, 4.0840, 2.4504, -0.0534
0.6234, -0.0516, 0.2220, 1.0382, 2.9237, 0.0076
0.6349, -0.0414, 0.2719, -2.8550, 3.9008, 3.3435
0.6215, -0.0563, 0.2765, -2.4122, 6.3511, 4.7863
0.6251, -0.0648, 0.2614, -1.5725, 9.6107, 7.1069
0.6500, -0.0360, 0.3160, -0.6794, 12.2137, 10.0305
0.6581, -0.0607, 0.3331, 1.2214, 13.3969, 12.7557
0.6710, -0.0677, 0.3463, 6.4809, 12.6412, 18.5496
0.6420, -0.0775, 0.3514, 7.4198, 12.0611, 26.2443
0.6188, -0.1005, 0.3383, 3.1908, 18.1832, 32.9771
0.6317, -0.1141, 0.3756, -6.6031, 25.4962, 41.0611
0.6456, -0.1075, 0.3998, -14.5038, 31.2061, 47.1908
0.6605, -0.1127, 0.4716, -18.7405, 34.4809, 55.1756
0.6576, -0.1132, 0.5199, -14.7328, 33.3588, 56.0992
0.6642, -0.1373, 0.6266, -4.6718, 25.3206, 49.6107
0.6649, -0.1217, 0.6156, 9.0840, 15.9466, 41.8168
0.6012, -0.1456, 0.5687, 16.0458, 22.5038, 33.6947
0.5702, -0.1725, 0.5082, 26.1145, -22.1450, -8.9771
0.6476, -0.1041, 0.5140, 38.3359, -3.9084, -22.1756
0.6451, -0.1090, 0.4486, 27.5114, 6.6336, -30.0153
0.6515, -0.0524, 0.4579, 20.3435, 24.5344, -29.9542
0.6661, -0.0258, 0.4913, 34.3740, 37.3053, -39.3130
0.6259, 0.0084, 0.5280, 56.5954, 34.9237, -38.5573
0.6024, 0.0175, 0.5048, 80.9466, 30.2672, -55.6794
0.6161, 0.0529, 0.4745, 102.9924, 25.7557, -66.0840
0.5426, 0.0336, 0.3378, 93.2977, 32.6031, -75.9084
0.4550, 0.0616, 0.1945, 81.8015, 48.2519, -81.3588
0.5460, 0.0680, 0.2296, 92.1221, 67.1298, -93.5191
0.5800, 0.0221, 0.2413, 90.9313, 70.6794, -91.0382
0.5092, 0.0770, 0.1915, 68.8931, 51.2672, -85.8931
0.5397, 0.1014, 0.1718, 65.7557, 47.2137, -75.4657
0.4733, 0.1146, 0.1217, 57.1603, 51.3664, -63.2748
0.5148, 0.1388, 0.0487, 36.8092, 52.7099, -45.7557
0.4989, 0.1998, 0.0358, 34.7634, 43.9008, -36.8550
0.5216, 0.1381, -0.0009, 31.5878, 44.5649, -26.9618
0.4686, 0.0690, 0.0404, 7.7786, 34.6260, -23.8244
0.4618, 0.0382, -0.0997, 1.0763, 31.2214, -21.5725
0.4491, 0.0419, -0.0592, -12.9313, 10.0000, -25.4427
0.4225, 0.0297, -0.0616, -28.5802, 9.8702, -32.2977
0.4147, 0.0887, -0.0157, -40.5878, 6.6260, -31.0229
0.4054, 0.1661, 0.0077, -36.9237, -3.9847, -20.1908
0.3956, 0.2848, 0.0702, -23.1298, -19.7023, -18.2519
0.4396, 0.2777, 0.0214, -4.1832, -20.0611, -15.5267
0.4286, 0.2191, -0.0604, 5.9847, -16.2290, -9.6718
0.4093, 0.1781, -0.1151, 11.2901, -13.9389, -13.0305
0.4025, 0.0853, -0.0905, 1.9237, -13.6489, -19.2366
0.3927, 0.0822, -0.0524, -11.2977, -7.2824, -24.2061
0.4125, 0.1271, -0.0875, -14.7176, -6.7557, -25.0687
0.4115, 0.1588, -0.0978, -17.0840, -10.6489, -25.4962
0.4279, 0.2819, -0.0150, -23.6260, -15.9237, -26.4886
0.4376, 0.3282, 0.0026, -25.1832, -15.5725, -20.5267
0.4435, 0.2814, -0.0756, -21.6794, -15.3740, -17.2366
0.4210, 0.1913, -0.1163, -16.7939, -11.6412, -24.1450
0.4093, 0.1144, -0.1442, -9.9237, -16.4580, -25.0229
0.4467, 0.0614, -0.0807, -17.6183, -15.3053, -22.3893
0.4513, 0.0690, -0.0917, -28.5878, -11.5115, -23.0000
0.4503, 0.1398, -0.0485, -27.9008, -10.6718, -23.4886
0.4662, 0.1793, -0.0194, -26.6870, -10.2748, -17.2366
0.4677, 0.1898, -0.0204, -26.1679, -8.0229, -10.7939
0.4572, 0.1571, -0.0082, -23.2519, -5.7023, -6.0992
0.4603, 0.1183, -0.0072, -23.1679, -4.6336, -4.8321
0.4557, 0.1056, 0.0123, -23.8092, -6.0763, -6.4046
0.4518, 0.0734, 0.0370, -24.1832, -7.7863, -4.7176
0.4425, 0.0599, 0.0272, -20.7557, -8.1221, -8.7176
0.4471, 0.0399, 0.0343, -18.2595, -6.9008, -5.8168
0.4484, 0.0231, 0.0529, -14.8931, -8.3817, -7.6718
0.4637, 0.0101, 0.0553, -19.4046, -7.2061, -1.9466
0.4716, 0.0497, 0.0343, -19.3130, -7.5725, -2.2977
0.4720, 0.0836, 0.0787, -12.4809, -9.3206, -0.5344
0.4677, 0.0499, 0.0851, -12.4885, -9.2672, 2.8702
0.4752, 0.0450, 0.0785, -12.5267, -7.4198, 3.1221
0.4930, 0.0521, 0.0717, -6.6031, -6.8855, 6.1985
0.4962, 0.0338, 0.0626, -7.9466, -4.9771, 5.3893
0.5013, 0.0114, 0.0297, -13.8550, -2.2443, 8.7634
0.4796, -0.0194, 0.0516, -14.2137, -1.3893, 4.6031
0.4781, -0.0265, 0.1088, -13.4580, -2.5878, 2.0687
0.4808, -0.0184, 0.1068, -13.0458, -2.4275, 2.2061
0.4838, -0.0165, 0.0790, -10.4656, 0.1527, 2.3359
0.5028, -0.0131, 0.0646, -8.3817, 2.2061, 3.4962
0.4987, 0.0028, 0.0756, -4.6107, 3.7481, 6.1527
0.4913, -0.0048, 0.1158, -1.8397, 4.0076, 7.2595
0.4750, -0.0348, 0.1393, -1.7405, 5.1145, 6.5954
0.4752, -0.0377, 0.1168, -1.2290, 7.9237, 5.1374
0.4906, -0.0258, 0.0912, 2.2519, 10.5038, 3.4885
0.4806, -0.0206, 0.1061, 4.9771, 12.0458, 2.4885
0.4767, -0.0189, 0.0760, 7.5038, 13.3969, 1.5649
0.4750, -0.0089, 0.0760, 10.5802, 14.5038, 0.7634
0.4691, -0.0145, 0.0387, 11.2137, 15.0840, -0.0534
0.4655, -0.0131, 0.0358, 11.0229, 14.4962, -0.1679
0.4733, -0.0070, 0.0062, 11.8244, 13.6336, 0.6947
0.4718, 0.0223, -0.0389, 15.4427, 12.4885, 2.8092
0.4657, 0.0165, -0.1024, 18.8092, 11.7176, 4.7710
0.4620, 0.0065, -0.1664, 18.1298, 11.8855, 3.0229
0.4691, 0.0045, -0.1727, 18.6031, 15.3511, 4.2061
0.4489, -0.0038, -0.1703, 17.7176, 15.0611, 0.8473
0.4432, 0.0282, -0.1471, 15.3588, 13.0229, -1.6260
0.4261, 0.0487, -0.1288, 14.4275, 10.6641, -0.6947
0.3986, 0.0634, -0.1749, 14.4580, 10.6947, 4.7557
0.3727, 0.0709, -0.2335, 11.3435, 10.4580, 4.7176
0.3976, 0.1058, -0.2091, 2.6794, 6.3664, -2.4885
0.4418, 0.1283, -0.2120, 3.6870, -6.2672, -9.5725
0.5255, 0.0702, -0.2753, 4.1450, -17.4046, -14.4122
0.5717, 0.0284, -0.3273, -8.8473, -13.2137, -5.3893
0.5187, 0.0477, -0.2394, -17.5267, 3.0687, -5.6031
0.4899, 0.0702, -0.1168, -29.7786, 16.2366, 9.4275
0.4181, 0.1024, 0.0138, -27.4046, 33.8244, 27.3206
0.3790, 0.0941, 0.1688, -12.1069, 48.8779, 16.1756
0.3854, 0.0763, 0.1464, 12.1603, 50.3893, -2.7099
0.4528, 0.0179, 0.0856, 27.5573, 44.2366, -21.7176
0.4906, -0.0204, 0.0206, 25.8015, 33.8550, -30.5267
0.5013, 0.0338, -0.0170, 18.8779, 30.2443, -24.6718
0.5096, 0.1315, 0.0607, 21.6412, 26.8931, -7.6870
0.4821, 0.1940, 0.1942, 17.0687, 18.5191, 18.4198
0.4125, 0.1930, 0.2980, 16.9771, 11.7252, 26.4504
0.3859, 0.0743, 0.3151, 27.7405, 7.4656, 18.6336
0.4315, -0.0431, 0.2479, 28.3588, 8.7405, 9.3359
0.4340, -0.1327, 0.1725, 8.9542, 18.8702, 6.5802
0.4237, -0.0807, 0.1486, -18.3893, 31.1298, 4.7710
0.4222, 0.0807, 0.2211, -40.9237, 33.9389, 4.5115
0.4454, 0.3043, 0.4032, -48.0153, 21.1832, 0.2824
0.4464, 0.4117, 0.5699, -25.9313, 6.8702, 8.4504
0.4301, 0.3156, 0.6056, -0.0458, -0.1756, 21.4809
0.4010, 0.1910, 0.5050, 30.7863, -0.4809, 40.2901
0.3712, 0.0685, 0.3041, 51.8321, -4.8702, 50.1603
0.3478, -0.0111, 0.1278, 58.5649, 12.6260, 49.0000
0.3112, -0.0343, 0.0197, 58.8092, 36.6336, 47.2137
0.3448, -0.0001, 0.0695, 54.0458, 44.6183, 36.1908
0.3729, 0.0328, 0.2267, 39.7176, 50.1832, 21.6565
0.3741, 0.0265, 0.3898, -0.9313, 49.4275, 23.0000
0.3864, 0.1359, 0.4435, -21.5038, 43.5038, 21.3588
0.4520, 0.2482, 0.5001, -11.1145, 26.5038, 13.7405
0.4828, 0.2772, 0.4491, 20.3206, 9.9847, 15.3588
0.4579, 0.2074, 0.3546, 50.7557, -1.0153, 15.9924
0.4301, 0.1083, 0.2379, 62.7405, -1.8550, 16.0382
0.4108, -0.0199, 0.1635, 45.2748, 0.6336, 7.4351
0.3705, -0.0614, 0.2186, 18.5267, 2.9084, -4.4198
0.4010, -0.0914, 0.2963, -15.0382, -0.7023, -1.9237
0.3324, -0.0480, 0.3148, -44.6718, 6.3817, -3.2443
0.3551, 0.0653, 0.4061, -46.2214, 2.0534, -0.2595
0.3861, 0.1185, 0.4999, -24.3588, -8.3511, 5.3359
0.3898, 0.0917, 0.5319, 1.7634, -23.3511, 11.5802
0.3851, 0.0409, 0.5162, 13.1298, -42.9542, 13.1069
0.3771, 0.0006, 0.4269, 13.7252, -59.7099, 3.1832
0.4020, 0.0004, 0.3185, 7.6489, -68.0153, -5.8244
0.4318, 0.0490, 0.1703, -10.0458, -56.6641, -7.0534
0.4733, 0.1002, 0.1559, -25.7634, -45.2672, -6.2137
0.4828, 0.1451, 0.2135, -33.0000, -30.4351, -2.4504
0.4840, 0.1573, 0.3226, -23.9542, -18.7023, -4.0992
0.4923, 0.1559, 0.4303, -7.0840, -14.9771, -4.9924
0.4901, 0.1290, 0.4418, 9.1374, -16.5191, 0.7176
0.4774, 0.1034, 0.3690, 12.4046, -22.2519, 6.1679
0.4650, 0.0582, 0.2721, 3.3359, -22.1069, 7.8779
0.4613, 0.0514, 0.1927, -1.7939, -20.0916, 5.2824
0.4515, 0.0568, 0.1730, -5.3893, -8.2901, 4.8244
0.4598, 0.0660, 0.2203, -9.2901, 16.6489, 6.3664
0.4733, 0.0951, 0.2628, 5.6565, 22.3053, 3.2214
0.4984, 0.0912, 0.2821, 21.7634, 25.0534, 0.9237
0.5187, 0.1222, 0.2748, 17.3511, 25.0000, -0.6107
0.5355, 0.1495, 0.2784, 20.9847, 14.0534, -2.0916
0.5289, 0.1320, 0.2267, 24.9160, 0.3511, -1.2214
0.5121, 0.1127, 0.1842, 23.1374, -1.1298, -0.1908
0.4979, 0.0985, 0.2074, 16.6870, 3.8855, 1.5038
0.4818, 0.0895, 0.2238, 11.4122, 11.8931, 4.2061
0.4760, 0.0970, 0.2111, 12.6718, 15.6947, 4.0916
0.4596, 0.0836, 0.2032, 13.7786, 16.1298, 3.5496
0.4469, 0.0726, 0.1771, 9.6641, 16.3511, 4.0687
0.4637, 0.1051, 0.1732, 9.3435, 15.8931, 3.6870
0.4777, 0.1285, 0.1700, 12.0992, 12.0382, 3.7481
0.4852, 0.1312, 0.1544, 11.3053, 8.1908, 6.5649
0.4784, 0.1376, 0.1600, 8.2214, 6.3130, 7.9924
0.4825, 0.1344, 0.1442, 7.5496, 6.0153, 8.9008
0.4777, 0.1290, 0.1385, 8.0229, 7.1679, 8.0687
0.4716, 0.1178, 0.1417, 7.4809, 8.5267, 7.6565
0.4752, 0.1212, 0.1422, 8.0305, 7.8626, 7.5420
0.4847, 0.1093, 0.1478, 8.7252, 5.7023, 7.5649
0.4706, 0.1183, 0.1151, 6.5725, 4.7481, 7.9542
0.4791, 0.1215, 0.1132, 4.5649, 6.0611, 7.0916
0.4781, 0.1217, 0.1200, 3.6107, 7.6260, 6.5038
0.4840, 0.1332, 0.1749, 5.2137, 5.3511, 4.9618
0.4896, 0.1444, 0.1952, 8.1527, 1.2824, 3.7328
0.4847, 0.1473, 0.1671, 12.1374, -1.9618, 4.6641
0.4774, 0.1381, 0.1368, 13.0153, -3.6336, 4.0153
0.4811, 0.1420, 0.0924, 10.4504, -3.5496, 4.8244
0.5043, 0.1820, 0.1105, 10.0611, -4.6489, 2.5496
0.4784, 0.1515, 0.1730, 5.8855, -3.6641, 0.6412
0.4689, 0.1232, 0.1981, -1.7939, -2.3435, 5.3664
0.4808, 0.1488, 0.2074, -2.4046, -4.5420, 6.3511
0.4835, 0.1522, 0.2216, -0.0611, -7.8397, 5.6565
0.4865, 0.1400, 0.2225, -0.2901, -7.5802, 7.3359
0.4840, 0.1517, 0.2045, 1.8931, -8.5191, 8.5802
0.4845, 0.1322, 0.1923, 5.2977, -7.6183, 5.9237
0.4723, 0.1110, 0.1820, 4.3511, -3.2214, 3.4351
0.4618, 0.1090, 0.1910, 3.1221, 0.1069, 1.5649
0.4713, 0.1132, 0.2015, 1.0153, 0.9008, 2.5115
0.4730, 0.1224, 0.2118, -0.8702, 1.3359, 2.2595
0.4698, 0.1044, 0.2523, -3.2061, 0.2290, 1.9084
0.4711, 0.1161, 0.2677, -2.3511, -0.0840, 3.0763
0.4723, 0.1232, 0.2811, 1.2214, 0.8015, 2.6718
0.4738, 0.1259, 0.3185, 5.0687, 3.5115, 5.4885
0.4779, 0.0975, 0.3431, 7.3359, 4.1985, 7.2748
0.4774, 0.0890, 0.3893, 7.5344, 6.9847, 8.4504
0.4686, 0.0819, 0.4230, 4.5267, 10.3588, 15.7939
0.4840, 0.0817, 0.4928, -0.1756, 9.7099, 13.2137
0.4806, 0.0787, 0.5472, -2.1756, 10.7939, 14.9313
0.4830, 0.0868, 0.5658, -5.1374, 15.4351, 20.7099
0.4794, 0.0956, 0.5280, -10.2137, 18.4046, 23.8855
0.4786, 0.0834, 0.4908, -13.8702, 30.9924, 21.7634
0.4867, 0.0582, 0.4957, -18.3588, 35.2824, 28.0687
0.4686, 0.0636, 0.4645, -22.3435, 36.5725, 25.5114
0.5223, 0.0726, 0.4579, -34.1450, 33.6718, 27.6641
0.5250, 0.0497, 0.4635, -50.4198, 34.2519, 22.2290
0.5282, 0.0624, 0.4640, -62.3359, 29.5649, 14.4656
0.5221, 0.0868, 0.4659, -58.6031, 21.2672, 9.3282
0.5258, 0.0909, 0.4655, -47.9924, 9.6412, 3.3969
0.5297, 0.0826, 0.4523, -26.5802, -10.2061, -5.0458
0.5133, 0.0770, 0.4122, -0.8092, -22.0458, -12.8931
0.4945, 0.0619, 0.3344, 12.8244, -23.9924, -22.2901
0.5087, 0.0463, 0.3092, -3.5267, -9.2366, -23.0611
0.5280, 0.0675, 0.3026, -20.8015, 8.1985, -20.7023
0.5326, 0.0824, 0.2679, -11.4046, 12.9924, -23.0458
0.5585, 0.1041, 0.2533, -6.2214, 10.2443, -19.1756
0.5353, 0.1256, 0.2391, -2.6260, 4.0305, -17.0763
0.5216, 0.1312, 0.2401, 10.7252, -4.5038, -11.3740
0.4940, 0.0922, 0.2372, 21.9847, -13.9084, -18.5114
0.4891, 0.0905, 0.1976, 26.1069, -17.3817, -22.0763
0.5116, 0.0802, 0.1219, 19.8015, -16.8473, -24.9924
0.5165, 0.0868, 0.0619, 3.7710, -9.4504, -32.0534
0.5265, 0.0931, 0.0250, -7.1679, -1.2443, -33.2595
0.5316, 0.1173, 0.0509, -12.3969, 2.5038, -25.6336
0.5038, 0.1566, 0.1180, -9.0992, 1.8702, -16.4656
0.4738, 0.1625, 0.2115, -15.2290, -2.1145, -14.0687
0.4532, 0.1581, 0.2220, -14.8244, -7.2137, -13.4809
0.4559, 0.1381, 0.1139, -3.8473, -9.4275, -12.7863
0.4640, 0.1195, 0.0297, 3.5954, -4.6412, -15.6107
0.4615, 0.1090, -0.0111, 12.1908, 1.4351, -11.9466
0.4650, 0.1061, -0.0192, 22.5267, 7.3206, -7.4885
0.4677, 0.0934, -0.0399, 29.5573, 12.8855, -5.6794
0.4684, 0.0853, -0.0504, 26.7939, 16.5878, -3.9924
0.4586, 0.0865, -0.0245, 16.5496, 22.0840, -6.0076
0.4508, 0.0948, -0.0243, 6.1374, 29.0382, -15.8702
0.4603, 0.0812, -0.0702, -5.0229, 35.2061, -21.2595
0.4860, 0.1107, -0.0963, -17.1679, 39.8092, -21.3130
0.4960, 0.1400, -0.1041, -15.1450, 43.2214, -13.2901
0.4791, 0.1559, -0.0800, -8.2824, 43.7023, -4.1298
0.4576, 0.1237, -0.1075, -8.6794, 36.8779, -0.3740
0.4574, 0.1100, -0.1127, -2.4885, 34.2214, 0.1298
0.4337, 0.0917, -0.1110, -0.2748, 36.8626, -2.7099
0.4240, 0.0629, -0.0746, -9.4809, 35.8397, -8.2748
0.4240, 0.0421, -0.0717, -18.3206, 32.9084, -13.7863
0.4081, 0.0089, -0.0887, -26.2901, 27.4580, -14.2595
0.4066, 0.0009, -0.0997, -30.8321, 25.6183, -14.2214
0.4110, -0.0070, -0.0907, -33.3511, 23.1832, -10.4885
0.4073, -0.0109, -0.0668, -36.1679, 20.1756, -2.8931
0.3864, -0.0021, -0.0289, -30.6565, 16.9008, 5.7252
0.3722, 0.0153, -0.0011, -21.5191, 14.2901, 10.6412
0.3636, 0.0116, 0.0416, -17.2366, 10.5878, 10.3359
0.3468, 0.0045, 0.0636, -13.3817, 6.1908, 7.4504
0.3575, -0.0448, 0.0397, -9.5649, 0.8779, 4.9466
0.3749, -0.0592, -0.0099, -11.3969, -0.7634, 6.2977
0.3817, -0.0702, -0.0248, -12.5038, 0.3053, 4.3588
0.3827, -0.0873, -0.0021, -16.5496, 1.2061, 7.4275
0.3749, -0.0665, 0.0316, -25.2366, 2.5954, 2.7328
0.3700, -0.0465, 0.0668, -28.6183, 1.7710, 4.4885
0.3729, -0.0267, 0.0939, -22.3969, -0.9542, 9.0229
0.3759, -0.0560, 0.0844, -16.6947, -0.4427, 13.0000
0.3732, -0.0682, 0.0565, -12.6260, 2.5344, 14.3511
0.3744, -0.0768, 0.0851, -8.5649, 3.5649, 10.2290
0.3683, -0.0846, 0.0988, -7.1985, 2.3740, 9.1374
0.3715, -0.0782, 0.1124, -7.0076, 0.8626, 7.8244
0.3705, -0.0736, 0.1237, -1.7634, -1.8702, 5.4046
0.3802, -0.0948, 0.1002, 4.0763, -2.2595, 4.3435
0.3829, -0.0990, 0.0961, 3.3664, 0.8550, 3.3511
0.3937, -0.0902, 0.0956, 4.1679, 4.6947, 1.3664
0.3910, -0.0831, 0.0802, 6.0382, 6.7252, -0.5802
0.3966, -0.0636, 0.1088, 7.0382, 7.2290, -0.9313
0.3947, -0.0587, 0.0970, 8.7176, 6.2748, -0.6412
0.3947, -0.0753, 0.0973, 12.1221, 5.7252, -2.6336
0.3917, -0.1017, 0.0917, 11.1756, 6.1832, -2.3130
0.3861, -0.1017, 0.0936, 11.0229, 7.1985, -3.2595
0.3903, -0.0792, 0.1058, 14.0763, 7.7786, -3.1527
0.3832, -0.0731, 0.1222, 15.6641, 7.4885, -2.4733
0.3834, -0.0499, 0.1293, 16.7634, 6.6870, -0.5420
0.3600, -0.0328, 0.1383, 18.5267, 5.1145, -0.8626
0.3451, -0.0333, 0.1537, 18.3740, 2.7863, -1.4275
0.3470, -0.0270, 0.1100, 16.8779, 1.4962, -1.7786
0.3654, -0.0089, 0.0902, 18.3053, -0.2519, -2.6412
0.3707, 0.0031, 0.0651, 21.4275, -3.0458, -0.6718
0.3995, -0.0123, 0.0314, 21.8092, -4.0611, 1.7023
0.4069, -0.0138, -0.0170, 16.9160, -3.2977, 2.1985
0.4152, 0.0135, -0.0255, 14.6260, -1.6947, 2.9313
0.4095, 0.0206, -0.0316, 14.1832, -0.4504, 1.7252
0.4130, 0.0524, -0.0209, 14.4046, -0.6107, -0.1679
0.4188, 0.0536, 0.0004, 18.3511, -3.3053, -0.5496
0.4279, 0.0287, 0.0106, 21.8244, -5.9313, -0.3664
0.4364, -0.0055, 0.0052, 21.4427, -5.8092, -2.1069
0.4352, -0.0087, -0.0089, 11.3435, -2.0000, -3.3893
0.4308, 0.0370, -0.0101, 3.2901, 0.9771, -2.8702
0.4276, 0.0804, -0.0155, -1.8779, 1.5038, -2.4809
0.4227, 0.1041, -0.0343, -5.7405, 0.3817, 7.7557
0.4188, 0.0900, -0.0753, -5.8321, -1.9618, 11.5725
0.4308, 0.0397, -0.0660, -0.7023, -0.8626, 11.6031
0.4635, 0.0035, -0.0311, 4.2214, 1.7710, 14.5115
0.4930, 0.0004, -0.0236, 14.1298, 5.1603, 25.0076
0.4886, 0.0328, -0.0155, 19.1527, 13.0687, 30.9313
0.4552, 0.0787, 0.0475, 14.2672, 24.6412, 27.2137
0.3612, 0.1344, 0.1927, 3.0763, 38.9771, 24.0076
0.3905, 0.2120, 0.2562, -10.1603, 42.2137, 25.2290
0.3346, 0.2445, 0.2108, -7.4122, 37.9237, 30.8015
0.3649, 0.2018, 0.1659, 0.2214, 25.7405, 29.3817
0.4210, 0.0841, 0.0873, -1.3740, 18.1527, 26.1985
0.4655, -0.0065, -0.0001, -5.3740, 9.3969, 19.7786
0.4928, -0.0504, -0.0538, -20.8244, 13.4809, 27.7863
0.4635, -0.0118, -0.0204, -38.6641, 17.0229, 39.3511
0.4286, 0.1373, 0.1356, -46.6947, 14.4656, 44.8626
0.3519, 0.1903, 0.3073, -32.6718, 3.3282, 30.9160
0.3331, 0.2448, 0.4037, -8.0458, -15.6718, 23.8779
0.3177, 0.1678, 0.3346, 8.7786, -22.1374, 14.8168
0.3915, 0.0082, 0.2006, 10.9389, -23.5496, 13.6183
0.4464, -0.0983, 0.0104, 6.4198, -14.7710, 9.4962
0.4784, -0.1058, -0.0812, 1.7786, -1.7328, 16.0153
0.4598, -0.0826, -0.0131, -3.1450, 6.7634, 20.2137
0.4105, -0.0638, 0.1307, -22.3588, 11.7176, 10.5038
0.3378, -0.0153, 0.3368, -38.6031, 21.9542, 17.2748
0.2926, 0.0309, 0.4147, -40.3130, 27.5573, 20.3359
0.2958, 0.0367, 0.4437, -18.1908, 25.6794, 17.9542
0.3290, -0.0450, 0.4496, 28.0687, 2.9466, 15.3435
0.3348, -0.2013, 0.2816, 49.3130, -18.5191, 15.4504
0.3810, -0.2545, 0.1198, 42.2443, -10.6870, 22.6412
0.4120, -0.2260, -0.0531, 14.6183, -2.9695, 14.6718
0.4200, -0.2013, 0.0214, -26.9389, 14.8931, 11.0611
0.4196, -0.1046, 0.0897, -72.6641, 26.7481, 21.0611
0.4694, 0.0253, 0.3041, -84.0000, 20.1450, 19.1374
0.4432, 0.0043, 0.5355, -74.6183, 5.3969, 34.1069
0.4169, -0.0529, 0.6080, -56.7710, -9.9847, 31.4580
0.3793, -0.1244, 0.5133, -34.0229, -13.8244, 27.9695
0.3422, -0.2025, 0.3297, -13.1450, -9.3435, 22.2137
0.3871, -0.2357, 0.1696, -2.2672, -3.0763, 18.8779
0.3566, -0.2262, 0.0699, -2.2595, -1.3588, 10.6336
0.3666, -0.2404, 0.1110, -28.3511, -5.6947, -2.6489
0.3646, -0.2299, 0.3038, -72.9695, -1.8321, -6.7252
0.3815, -0.1903, 0.4486, -96.7023, 0.2595, -1.5115
0.4098, -0.1598, 0.5245, -86.3664, -5.4885, 12.7634
0.4171, -0.2184, 0.5421, -66.4580, -14.8855, 12.0840
0.3961, -0.2118, 0.4427, -35.7557, -24.1298, 3.9618
0.4073, -0.2164, 0.3248, -10.2595, -23.7786, 2.9618
0.4237, -0.2396, 0.1920, -10.9771, 0.8244, 8.3130
0.4730, -0.2418, 0.2279, -32.5115, 18.0458, 5.3588
0.4987, -0.1910, 0.3253, -35.5115, 17.0687, -4.0305
0.4991, -0.1710, 0.4003, -14.1679, 12.6412, -0.9466
0.5062, -0.1735, 0.4320, 3.1832, 6.6260, 2.2214
0.4669, -0.2179, 0.4125, 20.0611, 3.9618, 6.5267
0.4166, -0.2592, 0.3448, 28.5878, 8.4122, 17.3893
0.3795, -0.2850, 0.3107, 21.4580, 19.0305, 15.5038
0.3683, -0.2977, 0.2770, 15.4351, 23.7252, 11.4809
0.3583, -0.2880, 0.2601, 9.7023, 22.7786, 7.1145
0.3707, -0.2531, 0.2706, 5.1069, 25.2901, 7.3206
0.3954, -0.2245, 0.2928, 5.0992, 19.5802, 4.7023
0.4174, -0.2084, 0.3002, 20.4198, -0.7786, 0.4885
0.3956, -0.2174, 0.2450, 35.7176, -15.1374, 3.3130
0.3700, -0.2592, 0.1349, 25.1527, -15.0687, 5.5344
0.3712, -0.2411, 0.0870, 9.5573, -10.0534, -0.7252
0.3876, -0.2277, 0.0785, 1.2519, -0.4198, -3.4046
0.4008, -0.2208, 0.1146, -9.0000, 9.9924, -4.0382
0.4240, -0.1942, 0.1837, -9.2824, 12.4275, -3.3893
0.4520, -0.1639, 0.2433, 0.8321, 15.1069, -0.9618
0.4681, -0.1635, 0.2743, 8.7863, 5.1069, -0.5344
0.4740, -0.1439, 0.3175, 24.2214, -11.3282, -4.1527
0.4454, -0.1720, 0.2667, 36.1145, -24.0840, -2.2519
0.4181, -0.2094, 0.2130, 27.5344, -20.1756, 1.1145
0.4149, -0.1969, 0.1859, 12.0000, -7.8550, 1.3817
0.4286, -0.1774, 0.1796, 1.5115, -2.0000, 0.4656
0.4410, -0.1508, 0.2040, 0.7099, 1.5420, -0.5725
0.4396, -0.1598, 0.2152, 3.7557, 2.3053, 1.8626
0.4420, -0.1525, 0.2399, 7.5954, -1.2137, 2.3893
0.4244, -0.1732, 0.2499, 13.4809, -5.6183, 1.8626
0.4208, -0.1835, 0.2042, 15.2366, -6.9084, 1.9466
0.4117, -0.1781, 0.1620, 11.7863, -3.9084, 1.4733
0.4176, -0.1713, 0.1620, 6.9771, -2.1145, -1.3969
0.4205, -0.1688, 0.1732, 6.9542, -4.3282, -2.9695
0.4259, -0.1769, 0.1981, 4.6641, -4.5649, -3.1069
0.4393, -0.1669, 0.1937, -1.5038, -2.2824, -1.0763
0.4420, -0.1473, 0.1720, -1.0992, 0.5496, -0.2672
0.4459, -0.1427, 0.1732, 3.3130, -1.0305, -0.1908
0.4559, -0.1407, 0.1564, 2.8168, -2.4275, -0.6947
0.4518, -0.1400, 0.1737, 3.1069, -1.3817, -1.5954
0.4459, -0.1583, 0.1740, 2.6794, -1.7786, -0.1069
0.4408, -0.1527, 0.1686, 0.6565, -0.5954, 0.4504
0.4445, -0.1456, 0.1891, 3.8321, 0.4962, 0.2824
0.4396, -0.1464, 0.1862, 7.5496, 0.0687, 0.8168
0.4462, -0.1495, 0.1864, 7.5878, 1.6641, 2.5954
0.4493, -0.1420, 0.1935, 7.5038, 5.7176, 3.7481
0.4564, -0.1334, 0.2135, 11.1145, 4.4733, 4.1985
0.4540, -0.1385, 0.2321, 16.7099, 1.7252, 2.7328
0.4562, -0.1407, 0.2516, 17.5954, 3.5115, 3.6412
0.4596, -0.1561, 0.2738, 12.9084, 3.5115, 3.5725
0.4657, -0.1661, 0.3092, 13.1985, -3.0076, 3.7328
0.4547, -0.1749, 0.3102, 14.8473, -4.8244, 5.3588
0.4406, -0.1881, 0.3136, 11.6107, -4.0534, 6.9160
0.4232, -0.2167, 0.2999, 10.0611, -1.6412, 2.7252
0.4381, -0.2384, 0.3287, -3.9847, 3.3511, 0.8473
0.4471, -0.2213, 0.3634, -14.7939, 11.3359, 0.9847
0.4628, -0.2118, 0.4127, -12.6565, 7.9847, 1.9924
0.4757, -0.2091, 0.4313, -6.5649, -1.4122, 0.1221
0.4608, -0.2577, 0.4210, -15.1679, -4.1679, 1.5038
0.4503, -0.2755, 0.3998, -27.8321, 2.1908, 4.9084
0.4452, -0.2753, 0.3890, -31.3817, 0.1221, 3.2672
0.4586, -0.2733, 0.4086, -28.6183, -0.2595, 0.1908
0.4777, -0.2462, 0.4215, -18.5420, -3.6031, -3.8550
0.4877, -0.2692, 0.4642, -8.1221, -11.6870, -9.0229
0.5128, -0.2433, 0.4669, -0.5344, -24.0611, -3.2443
0.5319, -0.2540, 0.4127, -1.1374, -29.6260, 0.2443
0.5511, -0.2094, 0.3495, 5.3511, -34.9008, 1.2977
0.5612, -0.1986, 0.3175, 29.9466, -46.0305, 24.4733
0.5782, -0.2069, 0.3219, 58.8321, -62.3969, 21.7939
0.5653, -0.2150, 0.3453, 56.6641, -74.5954, 7.8244
0.5768, -0.1823, 0.3700, 43.1450, -69.1756, 8.3053
0.5970, -0.1317, 0.4086, 45.4885, -67.2443, -3.8473
0.6195, -0.0912, 0.4774, 54.8321, -73.5191, -17.2366
0.6471, -0.0741, 0.4606, 46.3053, -64.8092, -21.5496
0.6500, -0.0560, 0.4410, 24.9237, -51.8244, -22.8168
0.6556, -0.0573, 0.4093, 7.2901, -45.8397, -17.5573
0.6381, -0.0660, 0.3541, -5.3053, -31.5878, -15.3969
0.6171, -0.0961, 0.2953, -16.9008, -15.7481, -16.7176
0.5726, -0.1652, 0.2606, -15.0305, -5.9389, -29.7634
0.5270, -0.2391, 0.2528, -9.3206, -2.5802, -35.5725
0.5287, -0.2367, 0.2684, -20.6947, 2.7557, -41.7252
0.5236, -0.1747, 0.2267, -33.3969, 5.8855, -57.1908
0.6356, -0.1112, 0.1849, -27.9466, 10.1374, -37.3435
0.6310, -0.0658, 0.0870, -15.4580, 11.1908, -26.2137
0.6459, -0.1141, 0.1122, -25.7252, 13.2824, -16.3969
0.6364, -0.0807, 0.1532, -31.3130, 12.2748, -16.3893
0.6373, -0.0590, 0.2086, -26.0534, 6.4962, -12.6947
0.6141, -0.1022, 0.1669, -22.3359, 1.8779, -9.5802
0.6173, -0.1127, 0.1002, -22.9389, -3.6336, -15.4198
0.6288, -0.1207, 0.0465, -29.5038, -3.3053, -17.9924
0.5985, -0.0985, 0.0157, -32.0534, 1.7634, -23.9771
0.6063, -0.0775, 0.0192, -17.3664, -0.4122, -22.1450
0.6146, -0.0841, 0.0204, -5.2824, -1.4580, -16.1679
0.6127, -0.0475, 0.0348, -0.8931, -1.7939, -16.8931
0.6053, -0.0341, 0.0629, 1.2977, 1.8244, -18.7176
0.5846, -0.0524, 0.0492, 4.1374, 9.4046, -26.3969
0.5704, -0.0746, -0.0072, 1.9389, 21.8244, -29.6260
0.5597, -0.0919, -0.0477, 0.1069, 35.0229, -32.3817
0.5729, -0.0409, -0.0768, 1.9695, 49.6718, -34.8779
0.5653, -0.0187, -0.0853, 7.5191, 43.8855, -33.7634
0.5724, -0.0607, -0.1093, 15.2672, 49.0229, -27.7405
0.5724, -0.0961, -0.1327, 10.5115, 40.0763, -14.7328
0.5814, -0.0895, -0.1395, 4.6641, 37.0229, -7.3053
0.5870, -0.0983, -0.1373, -0.8015, 41.0153, -0.2214
0.5751, -0.0765, -0.0941, -10.8015, 37.4656, -0.7710
0.5634, -0.0883, -0.0216, -13.0916, 40.1756, -8.0687
0.5194, -0.0878, -0.0021, -18.9237, 40.1221, -13.3893
0.4935, -0.1124, 0.0214, -19.9618, 41.5954, -16.9618
0.4747, -0.1198, -0.0240, -26.8473, 48.1603, -19.1985
0.5006, -0.0778, -0.0133, -30.9084, 46.4656, -19.3206
0.5114, -0.0634, -0.0094, -27.3817, 37.4351, -11.4733
0.5126, -0.0870, -0.0221, -17.2977, 31.5802, -7.5878
0.5045, -0.1256, -0.0197, -12.6489, 30.7252, -0.1756
0.5079, -0.1415, -0.0162, -14.4504, 30.5573, 2.4122
0.4889, -0.1283, 0.0380, -12.1374, 27.9160, -0.3740
0.4657, -0.1322, 0.0690, -7.5954, 25.1145, -3.0763
0.4545, -0.1356, 0.0953, -3.8321, 26.5114, -0.4122
0.4496, -0.1710, 0.0411, -2.1679, 30.1069, 3.0687
0.4437, -0.1552, 0.0536, -2.7786, 25.3588, 4.1069
0.4794, -0.2008, 0.0052, -1.8550, 23.9008, 4.5573
0.5092, -0.2125, -0.0221, -2.5115, 23.8015, 3.8015
0.4825, -0.2086, -0.0111, -9.1145, 19.2901, 1.9924
0.4733, -0.1971, 0.0236, -13.4962, 16.6031, 0.1069
0.4667, -0.1681, 0.0741, -15.8779, 13.9237, -0.4733
0.4630, -0.1398, 0.1141, -13.7023, 9.0992, 1.9084
0.4635, -0.1715, 0.1071, -10.9924, 6.1985, 9.3588
0.4672, -0.1935, 0.0433, -9.3130, 5.4351, 8.2977
0.4694, -0.2255, 0.0363, -9.4427, 6.6718, 4.8397
0.4821, -0.2284, 0.0470, -8.9237, 8.7939, 3.0992
0.4945, -0.2223, 0.0502, -3.9313, 7.7863, 3.4504
0.4916, -0.2177, 0.0551, 0.0153, 6.6336, 3.6565
0.4684, -0.2301, 0.0824, 0.8779, 5.4046, 3.6107
0.4486, -0.2428, 0.1176, 0.0076, 3.9389, 1.0458
0.4406, -0.2543, 0.1327, -3.8168, 3.5496, 0.8015
0.4594, -0.2411, 0.1100, -2.7405, 3.6336, 1.3053
0.4779, -0.2260, 0.1046, 4.9542, 1.3969, 1.6336
0.4718, -0.2462, 0.0892, 7.7023, 2.2137, 3.0382
0.4655, -0.2377, 0.1044, 5.6031, 5.1298, 2.7634
0.4467, -0.2230, 0.1544, 9.4962, 5.8092, 1.7863
0.4486, -0.2269, 0.1407, 12.1603, 6.1069, 4.1145
0.4498, -0.2379, 0.1390, 11.4275, 7.8168, 3.6183
0.4515, -0.2360, 0.1166, 14.9237, 9.2290, 2.0916
0.4559, -0.2365, 0.1102, 16.1908, 11.3588, 1.6947
0.4764, -0.2025, 0.1241, 15.3053, 12.5725, 3.1908
0.4799, -0.1776, 0.1376, 17.1832, 11.2061, 6.0076
0.4672, -0.1964, 0.1605, 16.8168, 9.2748, 8.1985
0.4476, -0.2030, 0.1703, 14.3282, 7.4809, 5.9313
0.4374, -0.2203, 0.1752, 14.0611, 4.5878, 1.5267
0.4354, -0.2250, 0.1351, 15.0534, 0.7786, -2.6794
0.4642, -0.1925, 0.1359, 15.5573, -3.2901, -2.7023
0.4828, -0.1439, 0.1417, 16.2290, -2.3511, -1.7863
0.4535, -0.1644, 0.1093, 11.9237, -1.2137, 0.7405
0.4630, -0.1481, 0.0975, 6.6183, -1.4351, 1.8168
0.4647, -0.1510, 0.0629, 6.7328, -0.5802, 4.6718
0.4784, -0.1615, 0.0092, 7.8626, 2.3511, 6.2214
0.4635, -0.1681, -0.0096, 9.1527, 6.4656, 7.5420
0.4418, -0.1705, 0.0099, 8.5191, 11.7099, 3.4809
0.4103, -0.1884, 0.0231, 9.4885, 15.8015, 2.8779
0.4076, -0.1847, 0.0253, 11.2824, 17.9084, 2.3893
0.4083, -0.1593, 0.0170, 11.4656, 19.3664, 0.8321
0.4061, -0.1495, 0.0087, 12.7328, 16.9771, 2.3664
0.4037, -0.1354, -0.0231, 18.2519, 12.3053, 6.6870
0.4086, -0.1461, -0.0946, 19.9160, 10.4656, 7.7405
0.4235, -0.1393, -0.1366, 18.3740, 10.0763, 10.9237
0.4342, -0.0980, -0.1508, 17.5420, 10.0305, 11.5725
0.4320, -0.1049, -0.1383, 14.2824, 10.9466, 11.7710
0.4310, -0.1229, -0.1193, 6.5267, 14.6947, 10.0076
0.4381, -0.1390, -0.0924, -2.9313, 23.1298, 6.6870
0.4757, -0.1031, -0.0875, -16.6183, 30.9160, 12.1145
0.4323, -0.0792, -0.0453, -25.1069, 39.6107, 8.6107
0.4100, -0.0016, 0.0209, -33.9695, 34.5267, 9.5496
0.4171, 0.0656, 0.0394, -21.8397, 19.9771, 12.7252
0.4083, 0.0287, 0.0724, -2.7099, 2.8626, 15.0534
0.4415, -0.0267, 0.0741, 14.9542, -9.0458, 17.0992
0.4569, -0.1107, 0.0240, 28.0840, 0.1221, 17.6183
0.4847, -0.1537, -0.0392, 27.8321, 17.9847, 13.7023
0.4808, -0.1393, -0.0697, 19.8092, 39.3282, 6.6336
0.4955, -0.0116, 0.0238, 24.0076, 41.3359, -3.4122
0.4606, 0.0175, 0.1552, 41.2443, 21.9618, -3.8779
0.4647, -0.0160, 0.2167, 46.4122, 4.1908, 7.0611
0.4589, -0.0599, 0.2452, 54.6183, -11.5344, 13.1221
0.4659, -0.0709, 0.2072, 65.5420, -27.1145, 21.5038
0.4762, -0.0228, 0.2057, 78.6412, -42.6565, 27.3130
0.4745, 0.0111, 0.1947, 91.1374, -53.4809, 35.6794
0.4518, 0.0597, 0.2140, 105.1298, -63.1069, 33.9695
0.3993, 0.0438, 0.2802, 100.4733, -66.4351, 35.5573
0.3759, 0.0038, 0.3615, 80.6260, -61.1221, 28.2977
0.3705, -0.0450, 0.3802, 70.8779, -49.0382, 28.1069
0.4410, -0.0341, 0.3282, 66.4580, -28.9771, 22.6641
0.4794, -0.0104, 0.2372, 64.7176, -11.5115, 15.0000
0.4979, -0.0057, 0.2113, 54.7634, -5.0992, 8.1679
0.4652, -0.0194, 0.2467, 30.2290, -1.7634, 0.1069
0.4425, 0.0756, 0.2621, 12.9618, 0.9466, -5.1756
0.4291, 0.0856, 0.3334, 8.9618, -3.7099, -10.6183
0.4039, 0.0673, 0.3436, 4.1985, 1.3969, -10.7099
0.4332, 0.0465, 0.3173, -3.5802, 9.4198, -7.2595
0.4359, -0.0182, 0.2501, -12.5878, 15.0611, -2.2519
0.4904, -0.0455, 0.1876, -18.0763, 24.2137, -1.7099
0.5367, -0.0033, 0.1617, -15.3282, 26.7710, -0.4427
0.5465, 0.0709, 0.1823, -6.2977, 14.6260, 7.9237
0.5236, 0.0895, 0.1805, 10.8931, 7.7786, 16.5573
0.5033, 0.0770, 0.2198, 18.2290, 3.8550, 23.4046
0.4584, 0.0140, 0.2606, 17.6107, -2.7328, 22.1298
0.4410, -0.0551, 0.2474, 6.2061, -11.7939, 22.0534
0.4564, -0.0790, 0.2382, -14.0916, -20.3969, 10.9313
0.4684, -0.0265, 0.2357, -18.4198, -23.3511, 9.0458
0.4974, -0.0092, 0.2240, -19.4886, -26.5267, 10.0458
0.4860, -0.0021, 0.2657, -21.8779, -23.1298, 17.0000
0.4679, 0.0426, 0.3153, -12.5038, -17.4580, 17.2519
0.4723, 0.0721, 0.4039, 2.3740, -10.9084, 19.3817
0.4762, 0.0643, 0.4806, 13.2595, -15.6336, 26.4886
0.5067, 0.0284, 0.4447, 18.8779, -26.8855, 33.6260
0.5775, 0.0360, 0.3785, 17.4809, -40.7176, 31.3817
0.5963, 0.0258, 0.2777, 14.2748, -42.3206, 27.7252
0.6097, 0.0258, 0.2225, 6.9237, -37.0382, 23.0534
0.6183, 0.0363, 0.2589, -1.5802, -25.8855, 16.8092
0.6222, 0.0573, 0.3331, 0.2595, -4.7176, 14.6641
0.5927, 0.0504, 0.3619, 9.2824, 5.2137, 10.4427
0.5721, 0.0055, 0.3414, 17.7176, 4.7023, 8.5191
0.5673, -0.0236, 0.2640, 20.7023, -0.5878, 9.5191
0.5619, -0.0416, 0.1952, 12.4962, 1.0763, -0.2290
0.5787, -0.0411, 0.1981, 0.4275, 1.9313, -3.4504
0.5780, -0.0082, 0.2328, -2.6641, 0.5725, -6.8015
0.5670, 0.0101, 0.2494, -8.7863, 1.0382, -6.7176
0.5682, -0.0026, 0.2448, -17.2137, 6.9160, -2.4275
0.5804, 0.0067, 0.2894, -19.8397, 14.3664, -5.0305
0.5770, 0.0238, 0.3129, -11.5038, 14.5420, -2.1145
0.6000, 0.0143, 0.3151, 3.8473, 6.1832, 2.7786
0.6097, 0.0192, 0.2789, 12.2748, -1.9160, 3.1221
0.5966, 0.0101, 0.2435, 12.0000, -6.3359, 2.0458
0.5931, 0.0153, 0.2428, 11.2901, -3.8168, -3.2519
0.6027, 0.0428, 0.2587, 7.7405, -2.9160, -6.3282
0.5941, 0.0250, 0.2450, 7.8855, -1.2366, -0.8092
0.6019, 0.0199, 0.2135, 4.3435, 1.3053, 3.0458
0.6078, 0.0365, 0.2023, 5.3664, 2.0000, 2.6336
0.5992, 0.0311, 0.1713, 4.7481, 2.4427, 2.8626
0.6066, 0.0321, 0.1869, 1.7710, 3.7557, -1.3664
0.6034, 0.0375, 0.1974, -0.5496, 4.0153, -2.1832
0.6100, 0.0443, 0.2028, -3.3893, 2.8244, -2.5725
0.6110, 0.0634, 0.2257, -3.7634, 2.2366, -2.1603
0.6095, 0.0634, 0.2069, -1.3893, 1.0534, -0.5115
0.6176, 0.0580, 0.1964, -2.1603, 1.5344, -1.5649
0.6136, 0.0450, 0.1898, -2.4351, 2.1985, 0.1603
0.6124, 0.0551, 0.1967, 0.9313, -0.6794, 0.2824
0.6051, 0.0448, 0.1879, 1.1298, -1.3511, 0.9542
0.5782, 0.0284, 0.1622, 0.1756, -0.5954, 0.4275
0.5802, 0.0272, 0.1407, 0.0840, -0.8550, 0.0687
0.5758, 0.0309, 0.1219, 0.2214, 0.9008, 0.8092
0.5643, 0.0192, 0.1051, 0.4809, 3.8397, 0.6031
0.5590, 0.0236, 0.1093, 5.7252, 5.2977, -0.3206
0.5575, 0.0157, 0.1085, 11.9084, 5.3740, -1.6107
0.5455, -0.0004, 0.0953, 11.9313, 6.9847, -2.6641
0.5575, 0.0131, 0.1246, 9.6794, 9.1298, -5.6260
0.5516, 0.0150, 0.1459, 8.4962, 11.6870, -5.7481
0.5773, 0.0526, 0.1813, 9.6412, 10.2748, -6.4656
0.5778, 0.0536, 0.1979, 12.1298, 9.8779, -5.3282
0.5929, 0.0636, 0.1967, 12.4275, 8.3588, -4.7710
0.6039, 0.0699, 0.2238, 14.2748, 5.9847, -5.4504
0.5970, 0.0690, 0.2513, 16.8321, 2.5954, -5.3588
0.6005, 0.0529, 0.2487, 17.3588, 0.7939, -3.3740
0.6007, 0.0482, 0.2592, 12.7328, 1.2061, -3.0534
0.6051, 0.0695, 0.2933, 9.8321, 1.9008, -5.0076
0.6058, 0.0509, 0.3353, 12.5038, -0.8473, -6.5954
0.6112, 0.0448, 0.3580, 16.8702, -4.2214, -5.6107
0.5988, 0.0067, 0.3810, 20.7786, -6.0382, -9.3893
0.6056, 0.0043, 0.4359, 21.1221, -6.1298, -10.6336
0.5829, 0.0240, 0.4240, 19.7099, -2.2901, -9.6489
0.5892, 0.0001, 0.4657, 7.0229, -5.2214, -12.0916
0.6237, 0.0223, 0.5155, -6.2214, 3.6412, -11.1985
0.6024, 0.0267, 0.5184, -20.8168, 0.1832, -12.3282
0.6134, 0.0243, 0.5424, -19.4580, -3.9618, -13.6565
0.6139, 0.0421, 0.5587, -14.1985, -5.5649, -9.3511
0.6241, 0.0563, 0.5621, -15.4733, 1.6031, -8.6870
0.6132, 0.0753, 0.5416, -15.3740, 13.3588, -4.2672
0.6080, 0.0704, 0.5101, -10.3740, 28.0763, 2.3588
0.5985, 0.0458, 0.4410, -1.7328, 48.3053, 2.0840
0.5975, 0.0258, 0.4259, 3.8244, 50.6947, -2.9160
0.6117, 0.0392, 0.4420, 10.4504, 49.9771, 4.5115
0.5922, 0.0468, 0.3617, 8.7099, 50.0382, 3.1603
0.5653, -0.0106, 0.2657, 12.1527, 43.5649, -13.0687
0.5228, -0.0062, 0.2404, 27.3130, 38.6336, -27.4580
0.5201, 0.0031, 0.2115, 30.6260, 26.6489, -35.5878
0.5079, 0.0331, 0.2064, 34.6947, 19.5725, -41.6336
0.5648, 0.1249, 0.2157, 28.8244, 19.0611, -42.0763
0.6083, 0.1964, 0.2001, 23.8626, 23.0992, -38.6489
0.6495, 0.2645, 0.2245, 33.6870, 16.2748, -40.0076
0.6344, 0.2091, 0.1442, 49.4809, 4.4656, -38.0687
0.5995, 0.1840, 0.1273, 57.2901, -6.0916, -46.3511
0.5477, 0.1598, 0.0792, 69.2672, -6.4580, -64.8168
0.5243, 0.0983, 0.0656, 82.1603, 7.2214, -72.2061
0.4889, 0.1251, 0.0641, 57.2977, 11.6260, -79.8473
0.4852, 0.1588, 0.0770, 33.5191, 19.8244, -83.2595
0.4728, 0.1451, 0.0323, 11.5725, 24.4656, -86.0611
0.4760, 0.1495, -0.0079, 2.6031, 25.7252, -82.0458
0.4762, 0.1544, -0.0206, 0.0382, 24.0229, -76.6336
0.4718, 0.1888, -0.0370, -7.0382, 23.6794, -65.9237
0.4945, 0.2155, -0.0482, -7.9084, 25.8397, -47.0382
0.5277, 0.2418, 0.0062, 5.8244, 11.3817, -26.0992
0.5131, 0.2704, -0.0385, 21.6565, -0.1145, -0.8931
0.4686, 0.2889, 0.0023, 28.3969, -6.2366, 9.9160
0.4032, 0.2633, 0.0629, 29.9695, -10.5496, 10.4733
0.3802, 0.2196, 0.0267, 26.7710, -13.0382, 6.7176
0.3500, 0.1400, 0.0302, 15.1298, -9.3435, -11.0916
0.3563, 0.1036, -0.0089, -10.6870, 2.0000, -31.2366
0.3969, 0.1644, -0.0231, -33.7939, 12.4656, -47.9924
0.4171, 0.2531, -0.0277, -42.5420, 16.8931, -54.7710
0.4552, 0.3051, -0.0280, -40.8015, 14.7939, -42.8550
0.4750, 0.3385, -0.0472, -30.1374, 13.0840, -25.7481
0.4711, 0.3336, -0.0380, -14.7252, 6.5115, -10.6641
0.4144, 0.2836, 0.0260, -7.9237, 3.5573, -0.6489
0.3549, 0.1923, 0.0389, -7.2901, 2.4427, 0.7786
0.3331, 0.1327, 0.0341, -6.7557, 2.5496, -6.4885
0.3385, 0.1259, -0.0067, -7.0840, -0.0916, -10.9008
0.3380, 0.0516, 0.0197, -25.9160, 7.9466, -22.0229
